timestamp,AX,AY,AZ,GX,GY,GZ,ASVM,GSVM,MCU_TIME,FALL_EVENT,label
2026-02-19T16:04:40.093154,0,0,0,0,0,0,0,0,0,0,run
2026-02-19T16:04:40.103860,-0.884,-0.17,-0.206,19.339,3.803,21.478,0.923,29.151,269.0,0.0,run
2026-02-19T16:04:40.126240,-0.884,-0.17,-0.206,19.339,3.803,21.478,0.923,29.151,269.0,0.0,run
2026-02-19T16:04:40.159931,-0.884,-0.17,-0.206,19.339,3.803,21.478,0.923,29.151,269.0,0.0,run
2026-02-19T16:04:40.189784,-0.884,-0.17,-0.206,19.339,3.803,21.478,0.923,29.151,269.0,0.0,run
2026-02-19T16:04:40.220480,-0.884,-0.17,-0.206,19.339,3.803,21.478,0.923,29.151,269.0,0.0,run
2026-02-19T16:04:40.254537,-1.13,0.164,-0.401,30.399,-8.797,26.728,1.21,41.423,271.0,0.0,run
2026-02-19T16:04:40.286157,-1.13,0.164,-0.401,30.399,-8.797,26.728,1.21,41.423,271.0,0.0,run
2026-02-19T16:04:40.308425,-1.13,0.164,-0.401,30.399,-8.797,26.728,1.21,41.423,271.0,0.0,run
2026-02-19T16:04:40.337569,-1.13,0.164,-0.401,30.399,-8.797,26.728,1.21,41.423,271.0,0.0,run
2026-02-19T16:04:40.360203,-1.13,0.164,-0.401,30.399,-8.797,26.728,1.21,41.423,271.0,0.0,run
2026-02-19T16:04:40.373048,-1.13,0.164,-0.401,30.399,-8.797,26.728,1.21,41.423,271.0,0.0,run
2026-02-19T16:04:40.411489,-1.13,0.164,-0.401,30.399,-8.797,26.728,1.21,41.423,271.0,0.0,run
2026-02-19T16:04:40.432923,-1.13,0.164,-0.401,30.399,-8.797,26.728,1.21,41.423,271.0,0.0,run
2026-02-19T16:04:40.475184,-1.13,0.164,-0.401,30.399,-8.797,26.728,1.21,41.423,271.0,0.0,run
2026-02-19T16:04:40.496135,-1.13,0.164,-0.401,30.399,-8.797,26.728,1.21,41.423,271.0,0.0,run
2026-02-19T16:04:40.527412,-1.13,0.164,-0.401,30.399,-8.797,26.728,1.21,41.423,271.0,0.0,run
2026-02-19T16:04:40.549201,-0.834,0.055,-0.173,-14.051,11.363,-19.472,0.853,26.565,359.0,0.0,run
2026-02-19T16:04:40.578004,-0.834,0.055,-0.173,-14.051,11.363,-19.472,0.853,26.565,359.0,0.0,run
2026-02-19T16:04:40.604675,-0.834,0.055,-0.173,-14.051,11.363,-19.472,0.853,26.565,359.0,0.0,run
2026-02-19T16:04:40.636416,-0.834,0.055,-0.173,-14.051,11.363,-19.472,0.853,26.565,359.0,0.0,run
2026-02-19T16:04:40.677462,-0.834,0.055,-0.173,-14.051,11.363,-19.472,0.853,26.565,359.0,0.0,run
2026-02-19T16:04:40.705269,-0.834,0.055,-0.173,-14.051,11.363,-19.472,0.853,26.565,359.0,0.0,run
2026-02-19T16:04:40.738055,-0.834,0.055,-0.173,-14.051,11.363,-19.472,0.853,26.565,359.0,0.0,run
2026-02-19T16:04:40.764778,-0.834,0.055,-0.173,-14.051,11.363,-19.472,0.853,26.565,359.0,0.0,run
2026-02-19T16:04:40.788599,-0.834,0.055,-0.173,-14.051,11.363,-19.472,0.853,26.565,359.0,0.0,run
2026-02-19T16:04:40.811090,-0.834,0.055,-0.173,-14.051,11.363,-19.472,0.853,26.565,359.0,0.0,run
2026-02-19T16:04:40.825524,-0.834,0.055,-0.173,-14.051,11.363,-19.472,0.853,26.565,359.0,0.0,run
2026-02-19T16:04:40.855060,-0.834,0.055,-0.173,-14.051,11.363,-19.472,0.853,26.565,359.0,0.0,run
2026-02-19T16:04:40.884418,-0.833,-0.171,-0.275,-6.771,-47.647,-28.222,0.894,55.79,330.0,0.0,run
2026-02-19T16:04:40.925784,-0.833,-0.171,-0.275,-6.771,-47.647,-28.222,0.894,55.79,330.0,0.0,run
2026-02-19T16:04:40.950929,-0.833,-0.171,-0.275,-6.771,-47.647,-28.222,0.894,55.79,330.0,0.0,run
2026-02-19T16:04:40.968618,-0.833,-0.171,-0.275,-6.771,-47.647,-28.222,0.894,55.79,330.0,0.0,run
2026-02-19T16:04:41.009768,-0.833,-0.171,-0.275,-6.771,-47.647,-28.222,0.894,55.79,330.0,0.0,run
2026-02-19T16:04:41.033093,-0.833,-0.171,-0.275,-6.771,-47.647,-28.222,0.894,55.79,330.0,0.0,run
2026-02-19T16:04:41.060383,-0.833,-0.171,-0.275,-6.771,-47.647,-28.222,0.894,55.79,330.0,0.0,run
2026-02-19T16:04:41.089315,-0.833,-0.171,-0.275,-6.771,-47.647,-28.222,0.894,55.79,330.0,0.0,run
2026-02-19T16:04:41.120949,-0.833,-0.171,-0.275,-6.771,-47.647,-28.222,0.894,55.79,330.0,0.0,run
2026-02-19T16:04:41.152397,-0.947,-0.219,-0.267,-7.121,13.393,1.108,1.008,15.209,330.0,0.0,run
2026-02-19T16:04:41.194241,-0.947,-0.219,-0.267,-7.121,13.393,1.108,1.008,15.209,330.0,0.0,run
2026-02-19T16:04:41.225712,-0.947,-0.219,-0.267,-7.121,13.393,1.108,1.008,15.209,330.0,0.0,run
2026-02-19T16:04:41.249203,-0.947,-0.219,-0.267,-7.121,13.393,1.108,1.008,15.209,330.0,0.0,run
2026-02-19T16:04:41.290833,-0.947,-0.219,-0.267,-7.121,13.393,1.108,1.008,15.209,330.0,0.0,run
2026-02-19T16:04:41.330672,-0.947,-0.219,-0.267,-7.121,13.393,1.108,1.008,15.209,330.0,0.0,run
2026-02-19T16:04:41.354554,-0.947,-0.219,-0.267,-7.121,13.393,1.108,1.008,15.209,330.0,0.0,run
2026-02-19T16:04:41.394512,-0.947,-0.219,-0.267,-7.121,13.393,1.108,1.008,15.209,330.0,0.0,run
2026-02-19T16:04:41.419861,-0.947,-0.219,-0.267,-7.121,13.393,1.108,1.008,15.209,330.0,0.0,run
2026-02-19T16:04:41.459415,-0.947,-0.219,-0.267,-7.121,13.393,1.108,1.008,15.209,330.0,0.0,run
2026-02-19T16:04:41.480778,-0.987,0.11,-0.212,-36.451,-35.397,13.078,1.016,52.466,271.0,0.0,run
2026-02-19T16:04:41.511498,-0.987,0.11,-0.212,-36.451,-35.397,13.078,1.016,52.466,271.0,0.0,run
2026-02-19T16:04:41.541553,-0.987,0.11,-0.212,-36.451,-35.397,13.078,1.016,52.466,271.0,0.0,run
2026-02-19T16:04:41.575095,-0.987,0.11,-0.212,-36.451,-35.397,13.078,1.016,52.466,271.0,0.0,run
2026-02-19T16:04:41.606765,-0.987,0.11,-0.212,-36.451,-35.397,13.078,1.016,52.466,271.0,0.0,run
2026-02-19T16:04:41.633432,-0.987,0.11,-0.212,-36.451,-35.397,13.078,1.016,52.466,271.0,0.0,run
2026-02-19T16:04:41.660057,-0.987,0.11,-0.212,-36.451,-35.397,13.078,1.016,52.466,271.0,0.0,run
2026-02-19T16:04:41.692673,-0.987,0.11,-0.212,-36.451,-35.397,13.078,1.016,52.466,271.0,0.0,run
2026-02-19T16:04:41.724440,-0.987,0.11,-0.212,-36.451,-35.397,13.078,1.016,52.466,271.0,0.0,run
2026-02-19T16:04:41.748650,-0.953,0.117,-0.268,14.719,7.933,5.168,0.997,17.501,330.0,0.0,run
2026-02-19T16:04:41.788749,-0.953,0.117,-0.268,14.719,7.933,5.168,0.997,17.501,330.0,0.0,run
2026-02-19T16:04:41.821016,-0.953,0.117,-0.268,14.719,7.933,5.168,0.997,17.501,330.0,0.0,run
2026-02-19T16:04:41.844975,-0.953,0.117,-0.268,14.719,7.933,5.168,0.997,17.501,330.0,0.0,run
2026-02-19T16:04:41.873087,-0.953,0.117,-0.268,14.719,7.933,5.168,0.997,17.501,330.0,0.0,run
2026-02-19T16:04:41.904494,-0.953,0.117,-0.268,14.719,7.933,5.168,0.997,17.501,330.0,0.0,run
2026-02-19T16:04:41.944218,-0.953,0.117,-0.268,14.719,7.933,5.168,0.997,17.501,330.0,0.0,run
2026-02-19T16:04:41.965600,-0.953,0.117,-0.268,14.719,7.933,5.168,0.997,17.501,330.0,0.0,run
2026-02-19T16:04:41.993129,-0.953,0.117,-0.268,14.719,7.933,5.168,0.997,17.501,330.0,0.0,run
2026-02-19T16:04:42.026157,-0.953,0.117,-0.268,14.719,7.933,5.168,0.997,17.501,330.0,0.0,run
2026-02-19T16:04:42.055296,-0.953,0.117,-0.268,14.719,7.933,5.168,0.997,17.501,330.0,0.0,run
2026-02-19T16:04:42.081204,-0.953,0.117,-0.268,14.719,7.933,5.168,0.997,17.501,330.0,0.0,run
2026-02-19T16:04:42.110235,-0.902,0.114,-0.278,7.859,16.473,-14.992,0.951,23.619,269.0,0.0,run
2026-02-19T16:04:42.136179,-0.902,0.114,-0.278,7.859,16.473,-14.992,0.951,23.619,269.0,0.0,run
2026-02-19T16:04:42.175975,-0.902,0.114,-0.278,7.859,16.473,-14.992,0.951,23.619,269.0,0.0,run
2026-02-19T16:04:42.198299,-0.902,0.114,-0.278,7.859,16.473,-14.992,0.951,23.619,269.0,0.0,run
2026-02-19T16:04:42.221450,-0.902,0.114,-0.278,7.859,16.473,-14.992,0.951,23.619,269.0,0.0,run
2026-02-19T16:04:42.231782,-0.902,0.114,-0.278,7.859,16.473,-14.992,0.951,23.619,269.0,0.0,run
2026-02-19T16:04:42.260459,-0.902,0.114,-0.278,7.859,16.473,-14.992,0.951,23.619,269.0,0.0,run
2026-02-19T16:04:42.294112,-0.902,0.114,-0.278,7.859,16.473,-14.992,0.951,23.619,269.0,0.0,run
2026-02-19T16:04:42.326322,-0.902,0.114,-0.278,7.859,16.473,-14.992,0.951,23.619,269.0,0.0,run
2026-02-19T16:04:42.354343,-0.902,0.114,-0.278,7.859,16.473,-14.992,0.951,23.619,269.0,0.0,run
2026-02-19T16:04:42.378437,-0.902,0.114,-0.278,7.859,16.473,-14.992,0.951,23.619,269.0,0.0,run
2026-02-19T16:04:42.402351,-0.902,0.114,-0.278,7.859,16.473,-14.992,0.951,23.619,269.0,0.0,run
2026-02-19T16:04:42.443274,-0.929,-0.207,-0.316,17.519,-14.677,-15.202,1.002,27.449,330.0,0.0,run
2026-02-19T16:04:42.472208,-0.929,-0.207,-0.316,17.519,-14.677,-15.202,1.002,27.449,330.0,0.0,run
2026-02-19T16:04:42.504303,-0.929,-0.207,-0.316,17.519,-14.677,-15.202,1.002,27.449,330.0,0.0,run
2026-02-19T16:04:42.535509,-0.929,-0.207,-0.316,17.519,-14.677,-15.202,1.002,27.449,330.0,0.0,run
2026-02-19T16:04:42.562842,-0.929,-0.207,-0.316,17.519,-14.677,-15.202,1.002,27.449,330.0,0.0,run
2026-02-19T16:04:42.595083,-0.929,-0.207,-0.316,17.519,-14.677,-15.202,1.002,27.449,330.0,0.0,run
2026-02-19T16:04:42.626033,-0.929,-0.207,-0.316,17.519,-14.677,-15.202,1.002,27.449,330.0,0.0,run
2026-02-19T16:04:42.657209,-0.929,-0.207,-0.316,17.519,-14.677,-15.202,1.002,27.449,330.0,0.0,run
2026-02-19T16:04:42.679847,-0.878,-0.144,-0.316,8.909,-6.067,4.958,0.944,11.864,330.0,0.0,run
2026-02-19T16:04:42.709646,-0.878,-0.144,-0.316,8.909,-6.067,4.958,0.944,11.864,330.0,0.0,run
2026-02-19T16:04:42.739500,-0.878,-0.144,-0.316,8.909,-6.067,4.958,0.944,11.864,330.0,0.0,run
2026-02-19T16:04:42.777337,-0.878,-0.144,-0.316,8.909,-6.067,4.958,0.944,11.864,330.0,0.0,run
2026-02-19T16:04:42.810212,-0.878,-0.144,-0.316,8.909,-6.067,4.958,0.944,11.864,330.0,0.0,run
2026-02-19T16:04:42.829408,-0.878,-0.144,-0.316,8.909,-6.067,4.958,0.944,11.864,330.0,0.0,run
2026-02-19T16:04:42.873328,-0.878,-0.144,-0.316,8.909,-6.067,4.958,0.944,11.864,330.0,0.0,run
2026-02-19T16:04:42.894669,-0.878,-0.144,-0.316,8.909,-6.067,4.958,0.944,11.864,330.0,0.0,run
2026-02-19T16:04:42.927712,-0.878,-0.144,-0.316,8.909,-6.067,4.958,0.944,11.864,330.0,0.0,run
2026-02-19T16:04:42.951931,-0.878,-0.144,-0.316,8.909,-6.067,4.958,0.944,11.864,330.0,0.0,run
2026-02-19T16:04:42.993120,-0.878,-0.144,-0.316,8.909,-6.067,4.958,0.944,11.864,330.0,0.0,run
2026-02-19T16:04:43.015349,-0.843,-0.084,-0.302,-0.471,-17.897,-8.412,0.9,19.781,271.0,0.0,run
2026-02-19T16:04:43.036717,-0.843,-0.084,-0.302,-0.471,-17.897,-8.412,0.9,19.781,271.0,0.0,run
2026-02-19T16:04:43.068506,-0.843,-0.084,-0.302,-0.471,-17.897,-8.412,0.9,19.781,271.0,0.0,run
2026-02-19T16:04:43.091253,-0.843,-0.084,-0.302,-0.471,-17.897,-8.412,0.9,19.781,271.0,0.0,run
2026-02-19T16:04:43.143867,-0.843,-0.084,-0.302,-0.471,-17.897,-8.412,0.9,19.781,271.0,0.0,run
2026-02-19T16:04:43.164889,-0.843,-0.084,-0.302,-0.471,-17.897,-8.412,0.9,19.781,271.0,0.0,run
2026-02-19T16:04:43.195745,-0.843,-0.084,-0.302,-0.471,-17.897,-8.412,0.9,19.781,271.0,0.0,run
2026-02-19T16:04:43.225218,-0.843,-0.084,-0.302,-0.471,-17.897,-8.412,0.9,19.781,271.0,0.0,run
2026-02-19T16:04:43.257262,-0.843,-0.084,-0.302,-0.471,-17.897,-8.412,0.9,19.781,271.0,0.0,run
2026-02-19T16:04:43.280708,-0.843,-0.084,-0.302,-0.471,-17.897,-8.412,0.9,19.781,271.0,0.0,run
2026-02-19T16:04:43.311233,-0.843,-0.084,-0.302,-0.471,-17.897,-8.412,0.9,19.781,271.0,0.0,run
2026-02-19T16:04:43.343835,-0.843,-0.084,-0.302,-0.471,-17.897,-8.412,0.9,19.781,271.0,0.0,run
2026-02-19T16:04:43.375179,-0.899,-0.092,-0.287,23.889,-17.967,13.988,0.948,33.003,329.0,0.0,run
2026-02-19T16:04:43.404976,-0.899,-0.092,-0.287,23.889,-17.967,13.988,0.948,33.003,329.0,0.0,run
2026-02-19T16:04:43.426877,-0.899,-0.092,-0.287,23.889,-17.967,13.988,0.948,33.003,329.0,0.0,run
2026-02-19T16:04:43.432872,-0.899,-0.092,-0.287,23.889,-17.967,13.988,0.948,33.003,329.0,0.0,run
2026-02-19T16:04:43.459160,-0.899,-0.092,-0.287,23.889,-17.967,13.988,0.948,33.003,329.0,0.0,run
2026-02-19T16:04:43.491109,-0.899,-0.092,-0.287,23.889,-17.967,13.988,0.948,33.003,329.0,0.0,run
2026-02-19T16:04:43.526916,-0.899,-0.092,-0.287,23.889,-17.967,13.988,0.948,33.003,329.0,0.0,run
2026-02-19T16:04:43.553667,-0.899,-0.092,-0.287,23.889,-17.967,13.988,0.948,33.003,329.0,0.0,run
2026-02-19T16:04:43.585632,-0.899,-0.092,-0.287,23.889,-17.967,13.988,0.948,33.003,329.0,0.0,run
2026-02-19T16:04:43.614387,-0.899,-0.092,-0.287,23.889,-17.967,13.988,0.948,33.003,329.0,0.0,run
2026-02-19T16:04:43.635924,-0.899,-0.092,-0.287,23.889,-17.967,13.988,0.948,33.003,329.0,0.0,run
2026-02-19T16:04:43.659253,-0.899,-0.092,-0.287,23.889,-17.967,13.988,0.948,33.003,329.0,0.0,run
2026-02-19T16:04:43.671567,-2.021,0.482,-0.248,42.999,-45.477,-32.072,2.093,70.325,330.0,0.0,run
2026-02-19T16:04:43.698981,-2.021,0.482,-0.248,42.999,-45.477,-32.072,2.093,70.325,330.0,0.0,run
2026-02-19T16:04:43.725475,-2.021,0.482,-0.248,42.999,-45.477,-32.072,2.093,70.325,330.0,0.0,run
2026-02-19T16:04:43.754269,-2.021,0.482,-0.248,42.999,-45.477,-32.072,2.093,70.325,330.0,0.0,run
2026-02-19T16:04:43.762490,-2.021,0.482,-0.248,42.999,-45.477,-32.072,2.093,70.325,330.0,0.0,run
2026-02-19T16:04:43.793770,-2.021,0.482,-0.248,42.999,-45.477,-32.072,2.093,70.325,330.0,0.0,run
2026-02-19T16:04:43.841736,-2.021,0.482,-0.248,42.999,-45.477,-32.072,2.093,70.325,330.0,0.0,run
2026-02-19T16:04:43.877668,-2.021,0.482,-0.248,42.999,-45.477,-32.072,2.093,70.325,330.0,0.0,run
2026-02-19T16:04:43.906822,-2.021,0.482,-0.248,42.999,-45.477,-32.072,2.093,70.325,330.0,0.0,run
2026-02-19T16:04:43.942619,-2.021,0.482,-0.248,42.999,-45.477,-32.072,2.093,70.325,330.0,0.0,run
2026-02-19T16:04:43.967649,-2.021,0.482,-0.248,42.999,-45.477,-32.072,2.093,70.325,330.0,0.0,run
2026-02-19T16:04:44.009048,-2.021,0.482,-0.248,42.999,-45.477,-32.072,2.093,70.325,330.0,0.0,run
2026-02-19T16:04:44.036200,-2.021,0.482,-0.248,42.999,-45.477,-32.072,2.093,70.325,330.0,0.0,run
2026-02-19T16:04:44.062962,-2.021,0.482,-0.248,42.999,-45.477,-32.072,2.093,70.325,330.0,0.0,run
2026-02-19T16:04:44.087633,-0.851,0.091,-0.055,-32.951,25.783,86.368,0.858,95.969,330.0,0.0,run
2026-02-19T16:04:44.116344,-0.851,0.091,-0.055,-32.951,25.783,86.368,0.858,95.969,330.0,0.0,run
2026-02-19T16:04:44.142737,-0.851,0.091,-0.055,-32.951,25.783,86.368,0.858,95.969,330.0,0.0,run
2026-02-19T16:04:44.156285,-0.851,0.091,-0.055,-32.951,25.783,86.368,0.858,95.969,330.0,0.0,run
2026-02-19T16:04:44.187754,-0.851,0.091,-0.055,-32.951,25.783,86.368,0.858,95.969,330.0,0.0,run
2026-02-19T16:04:44.213616,-0.851,0.091,-0.055,-32.951,25.783,86.368,0.858,95.969,330.0,0.0,run
2026-02-19T16:04:44.241049,-0.851,0.091,-0.055,-32.951,25.783,86.368,0.858,95.969,330.0,0.0,run
2026-02-19T16:04:44.272929,-0.851,0.091,-0.055,-32.951,25.783,86.368,0.858,95.969,330.0,0.0,run
2026-02-19T16:04:44.274964,-0.851,0.091,-0.055,-32.951,25.783,86.368,0.858,95.969,330.0,0.0,run
2026-02-19T16:04:44.304231,-0.851,0.091,-0.055,-32.951,25.783,86.368,0.858,95.969,330.0,0.0,run
2026-02-19T16:04:44.329898,-0.851,0.091,-0.055,-32.951,25.783,86.368,0.858,95.969,330.0,0.0,run
2026-02-19T16:04:44.365688,-0.851,0.091,-0.055,-32.951,25.783,86.368,0.858,95.969,330.0,0.0,run
2026-02-19T16:04:44.392950,0.628,-0.799,0.299,-70.261,-42.887,-21.5,1.059,85.078,361.0,0.0,run
2026-02-19T16:04:44.419485,0.628,-0.799,0.299,-70.261,-42.887,-21.5,1.059,85.078,361.0,0.0,run
2026-02-19T16:04:44.452076,0.628,-0.799,0.299,-70.261,-42.887,-21.5,1.059,85.078,361.0,0.0,run
2026-02-19T16:04:44.485190,0.628,-0.799,0.299,-70.261,-42.887,-21.5,1.059,85.078,361.0,0.0,run
2026-02-19T16:04:44.509774,0.628,-0.799,0.299,-70.261,-42.887,-21.5,1.059,85.078,361.0,0.0,run
2026-02-19T16:04:44.538258,0.628,-0.799,0.299,-70.261,-42.887,-21.5,1.059,85.078,361.0,0.0,run
2026-02-19T16:04:44.544974,0.628,-0.799,0.299,-70.261,-42.887,-21.5,1.059,85.078,361.0,0.0,run
2026-02-19T16:04:44.577177,0.628,-0.799,0.299,-70.261,-42.887,-21.5,1.059,85.078,361.0,0.0,run
2026-02-19T16:04:44.603027,0.628,-0.799,0.299,-70.261,-42.887,-21.5,1.059,85.078,361.0,0.0,run
2026-02-19T16:04:44.625039,0.628,-0.799,0.299,-70.261,-42.887,-21.5,1.059,85.078,361.0,0.0,run
2026-02-19T16:04:44.653016,0.628,-0.799,0.299,-70.261,-42.887,-21.5,1.059,85.078,361.0,0.0,run
2026-02-19T16:04:44.693451,0.628,-0.799,0.299,-70.261,-42.887,-21.5,1.059,85.078,361.0,0.0,run
2026-02-19T16:04:44.721756,0.628,-0.799,0.299,-70.261,-42.887,-21.5,1.059,85.078,361.0,0.0,run
2026-02-19T16:04:44.755291,0.588,0.112,0.156,82.619,-97.487,72.228,0.619,146.788,360.0,0.0,run
2026-02-19T16:04:44.789324,0.588,0.112,0.156,82.619,-97.487,72.228,0.619,146.788,360.0,0.0,run
2026-02-19T16:04:44.812068,0.588,0.112,0.156,82.619,-97.487,72.228,0.619,146.788,360.0,0.0,run
2026-02-19T16:04:44.841712,0.588,0.112,0.156,82.619,-97.487,72.228,0.619,146.788,360.0,0.0,run
2026-02-19T16:04:44.870363,0.588,0.112,0.156,82.619,-97.487,72.228,0.619,146.788,360.0,0.0,run
2026-02-19T16:04:44.902285,0.588,0.112,0.156,82.619,-97.487,72.228,0.619,146.788,360.0,0.0,run
2026-02-19T16:04:44.935237,0.588,0.112,0.156,82.619,-97.487,72.228,0.619,146.788,360.0,0.0,run
2026-02-19T16:04:44.976125,0.588,0.112,0.156,82.619,-97.487,72.228,0.619,146.788,360.0,0.0,run
2026-02-19T16:04:44.994923,0.588,0.112,0.156,82.619,-97.487,72.228,0.619,146.788,360.0,0.0,run
2026-02-19T16:04:45.026704,0.588,0.112,0.156,82.619,-97.487,72.228,0.619,146.788,360.0,0.0,run
2026-02-19T16:04:45.060004,0.588,0.112,0.156,82.619,-97.487,72.228,0.619,146.788,360.0,0.0,run
2026-02-19T16:04:45.082745,-0.168,0.216,0.386,-37.641,-101.197,-24.7,0.473,110.765,330.0,0.0,run
2026-02-19T16:04:45.118935,-0.168,0.216,0.386,-37.641,-101.197,-24.7,0.473,110.765,330.0,0.0,run
2026-02-19T16:04:45.158991,-0.168,0.216,0.386,-37.641,-101.197,-24.7,0.473,110.765,330.0,0.0,run
2026-02-19T16:04:45.176598,-0.168,0.216,0.386,-37.641,-101.197,-24.7,0.473,110.765,330.0,0.0,run
2026-02-19T16:04:45.202708,-0.168,0.216,0.386,-37.641,-101.197,-24.7,0.473,110.765,330.0,0.0,run
2026-02-19T16:04:45.234680,-0.168,0.216,0.386,-37.641,-101.197,-24.7,0.473,110.765,330.0,0.0,run
2026-02-19T16:04:45.266847,-0.168,0.216,0.386,-37.641,-101.197,-24.7,0.473,110.765,330.0,0.0,run
2026-02-19T16:04:45.293695,-0.168,0.216,0.386,-37.641,-101.197,-24.7,0.473,110.765,330.0,0.0,run
2026-02-19T16:04:45.319867,-0.168,0.216,0.386,-37.641,-101.197,-24.7,0.473,110.765,330.0,0.0,run
2026-02-19T16:04:45.350566,-0.168,0.216,0.386,-37.641,-101.197,-24.7,0.473,110.765,330.0,0.0,run
2026-02-19T16:04:45.393518,-0.168,0.216,0.386,-37.641,-101.197,-24.7,0.473,110.765,330.0,0.0,run
2026-02-19T16:04:45.415589,-4.482,0.183,-0.213,140.719,-101.407,14.54,4.491,174.06,359.0,0.0,run
2026-02-19T16:04:45.457442,-4.482,0.183,-0.213,140.719,-101.407,14.54,4.491,174.06,359.0,0.0,run
2026-02-19T16:04:45.493600,-4.482,0.183,-0.213,140.719,-101.407,14.54,4.491,174.06,359.0,0.0,run
2026-02-19T16:04:45.543094,-4.482,0.183,-0.213,140.719,-101.407,14.54,4.491,174.06,359.0,0.0,run
2026-02-19T16:04:45.561082,-4.482,0.183,-0.213,140.719,-101.407,14.54,4.491,174.06,359.0,0.0,run
2026-02-19T16:04:45.591991,-4.482,0.183,-0.213,140.719,-101.407,14.54,4.491,174.06,359.0,0.0,run
2026-02-19T16:04:45.620051,-4.482,0.183,-0.213,140.719,-101.407,14.54,4.491,174.06,359.0,0.0,run
2026-02-19T16:04:45.652838,-4.482,0.183,-0.213,140.719,-101.407,14.54,4.491,174.06,359.0,0.0,run
2026-02-19T16:04:45.683805,-4.482,0.183,-0.213,140.719,-101.407,14.54,4.491,174.06,359.0,0.0,run
2026-02-19T16:04:45.726159,-4.482,0.183,-0.213,140.719,-101.407,14.54,4.491,174.06,359.0,0.0,run
2026-02-19T16:04:45.744960,-1.016,-0.165,-1.567,-34.841,-124.087,115.5,1.874,173.105,330.0,0.0,run
2026-02-19T16:04:45.769336,-1.016,-0.165,-1.567,-34.841,-124.087,115.5,1.874,173.105,330.0,0.0,run
2026-02-19T16:04:45.798326,-1.016,-0.165,-1.567,-34.841,-124.087,115.5,1.874,173.105,330.0,0.0,run
2026-02-19T16:04:45.820552,-1.016,-0.165,-1.567,-34.841,-124.087,115.5,1.874,173.105,330.0,0.0,run
2026-02-19T16:04:45.830886,-1.016,-0.165,-1.567,-34.841,-124.087,115.5,1.874,173.105,330.0,0.0,run
2026-02-19T16:04:45.860948,-1.016,-0.165,-1.567,-34.841,-124.087,115.5,1.874,173.105,330.0,0.0,run
2026-02-19T16:04:45.882946,-1.016,-0.165,-1.567,-34.841,-124.087,115.5,1.874,173.105,330.0,0.0,run
2026-02-19T16:04:45.894189,-1.016,-0.165,-1.567,-34.841,-124.087,115.5,1.874,173.105,330.0,0.0,run
2026-02-19T16:04:45.925563,-1.016,-0.165,-1.567,-34.841,-124.087,115.5,1.874,173.105,330.0,0.0,run
2026-02-19T16:04:45.947414,-1.016,-0.165,-1.567,-34.841,-124.087,115.5,1.874,173.105,330.0,0.0,run
2026-02-19T16:04:45.987202,-1.016,-0.165,-1.567,-34.841,-124.087,115.5,1.874,173.105,330.0,0.0,run
2026-02-19T16:04:46.012179,-1.016,-0.165,-1.567,-34.841,-124.087,115.5,1.874,173.105,330.0,0.0,run
2026-02-19T16:04:46.042935,-1.016,-0.165,-1.567,-34.841,-124.087,115.5,1.874,173.105,330.0,0.0,run
2026-02-19T16:04:46.075612,-1.016,-0.165,-1.567,-34.841,-124.087,115.5,1.874,173.105,330.0,0.0,run
2026-02-19T16:04:46.107175,-1.016,-0.165,-1.567,-34.841,-124.087,115.5,1.874,173.105,330.0,0.0,run
2026-02-19T16:04:46.141549,-1.016,-0.165,-1.567,-34.841,-124.087,115.5,1.874,173.105,330.0,0.0,run
2026-02-19T16:04:46.173064,-1.016,-0.165,-1.567,-34.841,-124.087,115.5,1.874,173.105,330.0,0.0,run
2026-02-19T16:04:46.193891,-0.392,-0.657,-0.179,-39.251,160.393,32.888,0.786,168.369,330.0,0.0,run
2026-02-19T16:04:46.225667,-0.392,-0.657,-0.179,-39.251,160.393,32.888,0.786,168.369,330.0,0.0,run
2026-02-19T16:04:46.246319,-0.392,-0.657,-0.179,-39.251,160.393,32.888,0.786,168.369,330.0,0.0,run
2026-02-19T16:04:46.276316,-0.392,-0.657,-0.179,-39.251,160.393,32.888,0.786,168.369,330.0,0.0,run
2026-02-19T16:04:46.298938,-0.392,-0.657,-0.179,-39.251,160.393,32.888,0.786,168.369,330.0,0.0,run
2026-02-19T16:04:46.342055,-0.392,-0.657,-0.179,-39.251,160.393,32.888,0.786,168.369,330.0,0.0,run
2026-02-19T16:04:46.371258,-0.392,-0.657,-0.179,-39.251,160.393,32.888,0.786,168.369,330.0,0.0,run
2026-02-19T16:04:46.404246,-0.392,-0.657,-0.179,-39.251,160.393,32.888,0.786,168.369,330.0,0.0,run
2026-02-19T16:04:46.434646,-0.392,-0.657,-0.179,-39.251,160.393,32.888,0.786,168.369,330.0,0.0,run
2026-02-19T16:04:46.471672,-0.392,-0.657,-0.179,-39.251,160.393,32.888,0.786,168.369,330.0,0.0,run
2026-02-19T16:04:46.506748,-0.392,-0.657,-0.179,-39.251,160.393,32.888,0.786,168.369,330.0,0.0,run
2026-02-19T16:04:46.526707,-0.392,-0.657,-0.179,-39.251,160.393,32.888,0.786,168.369,330.0,0.0,run
2026-02-19T16:04:46.559465,-0.392,-0.657,-0.179,-39.251,160.393,32.888,0.786,168.369,330.0,0.0,run
2026-02-19T16:04:46.581562,-0.444,-0.065,0.264,-20.351,-91.607,-12.75,0.521,94.703,331.0,0.0,run
2026-02-19T16:04:46.602889,-0.444,-0.065,0.264,-20.351,-91.607,-12.75,0.521,94.703,331.0,0.0,run
2026-02-19T16:04:46.634714,-0.444,-0.065,0.264,-20.351,-91.607,-12.75,0.521,94.703,331.0,0.0,run
2026-02-19T16:04:46.661787,-0.444,-0.065,0.264,-20.351,-91.607,-12.75,0.521,94.703,331.0,0.0,run
2026-02-19T16:04:46.674566,-0.444,-0.065,0.264,-20.351,-91.607,-12.75,0.521,94.703,331.0,0.0,run
2026-02-19T16:04:46.704271,-0.444,-0.065,0.264,-20.351,-91.607,-12.75,0.521,94.703,331.0,0.0,run
2026-02-19T16:04:46.736598,-0.444,-0.065,0.264,-20.351,-91.607,-12.75,0.521,94.703,331.0,0.0,run
2026-02-19T16:04:46.764465,-0.444,-0.065,0.264,-20.351,-91.607,-12.75,0.521,94.703,331.0,0.0,run
2026-02-19T16:04:46.787166,-0.444,-0.065,0.264,-20.351,-91.607,-12.75,0.521,94.703,331.0,0.0,run
2026-02-19T16:04:46.810175,-0.444,-0.065,0.264,-20.351,-91.607,-12.75,0.521,94.703,331.0,0.0,run
2026-02-19T16:04:46.825111,-0.444,-0.065,0.264,-20.351,-91.607,-12.75,0.521,94.703,331.0,0.0,run
2026-02-19T16:04:46.853872,-0.444,-0.065,0.264,-20.351,-91.607,-12.75,0.521,94.703,331.0,0.0,run
2026-02-19T16:04:46.883735,-0.444,-0.065,0.264,-20.351,-91.607,-12.75,0.521,94.703,331.0,0.0,run
2026-02-19T16:04:46.915368,-0.444,-0.065,0.264,-20.351,-91.607,-12.75,0.521,94.703,331.0,0.0,run
2026-02-19T16:04:46.937682,-0.444,-0.065,0.264,-20.351,-91.607,-12.75,0.521,94.703,331.0,0.0,run
2026-02-19T16:04:46.970390,-0.444,-0.065,0.264,-20.351,-91.607,-12.75,0.521,94.703,331.0,0.0,run
2026-02-19T16:04:47.002248,-0.785,-0.081,-0.297,137.499,88.923,-73.862,0.843,179.635,509.0,0.0,run
2026-02-19T16:04:47.034746,-0.785,-0.081,-0.297,137.499,88.923,-73.862,0.843,179.635,509.0,0.0,run
2026-02-19T16:04:47.061858,-0.785,-0.081,-0.297,137.499,88.923,-73.862,0.843,179.635,509.0,0.0,run
2026-02-19T16:04:47.087898,-0.785,-0.081,-0.297,137.499,88.923,-73.862,0.843,179.635,509.0,0.0,run
2026-02-19T16:04:47.118553,-0.785,-0.081,-0.297,137.499,88.923,-73.862,0.843,179.635,509.0,0.0,run
2026-02-19T16:04:47.126210,-0.785,-0.081,-0.297,137.499,88.923,-73.862,0.843,179.635,509.0,0.0,run
2026-02-19T16:04:47.156229,-0.785,-0.081,-0.297,137.499,88.923,-73.862,0.843,179.635,509.0,0.0,run
2026-02-19T16:04:47.187650,-0.785,-0.081,-0.297,137.499,88.923,-73.862,0.843,179.635,509.0,0.0,run
2026-02-19T16:04:47.207747,-0.785,-0.081,-0.297,137.499,88.923,-73.862,0.843,179.635,509.0,0.0,run
2026-02-19T16:04:47.257383,-0.785,-0.081,-0.297,137.499,88.923,-73.862,0.843,179.635,509.0,0.0,run
2026-02-19T16:04:47.286553,-0.785,-0.081,-0.297,137.499,88.923,-73.862,0.843,179.635,509.0,0.0,run
2026-02-19T16:04:47.320802,-0.785,-0.081,-0.297,137.499,88.923,-73.862,0.843,179.635,509.0,0.0,run
2026-02-19T16:04:47.335301,-0.785,-0.081,-0.297,137.499,88.923,-73.862,0.843,179.635,509.0,0.0,run
2026-02-19T16:04:47.358970,-0.785,-0.081,-0.297,137.499,88.923,-73.862,0.843,179.635,509.0,0.0,run
2026-02-19T16:04:47.385027,-0.785,-0.081,-0.297,137.499,88.923,-73.862,0.843,179.635,509.0,0.0,run
2026-02-19T16:04:47.425814,-0.785,-0.081,-0.297,137.499,88.923,-73.862,0.843,179.635,509.0,0.0,run
2026-02-19T16:04:47.457666,-0.785,-0.081,-0.297,137.499,88.923,-73.862,0.843,179.635,509.0,0.0,run
2026-02-19T16:04:47.490037,-0.785,-0.081,-0.297,137.499,88.923,-73.862,0.843,179.635,509.0,0.0,run
2026-02-19T16:04:47.515243,-0.785,-0.081,-0.297,137.499,88.923,-73.862,0.843,179.635,509.0,0.0,run
2026-02-19T16:04:47.541973,-0.785,-0.081,-0.297,137.499,88.923,-73.862,0.843,179.635,509.0,0.0,run
2026-02-19T16:04:47.575389,-0.785,-0.081,-0.297,137.499,88.923,-73.862,0.843,179.635,509.0,0.0,run
2026-02-19T16:04:47.604304,-0.785,-0.081,-0.297,137.499,88.923,-73.862,0.843,179.635,509.0,0.0,run
2026-02-19T16:04:47.634629,-0.785,-0.081,-0.297,137.499,88.923,-73.862,0.843,179.635,509.0,0.0,run
2026-02-19T16:04:47.665287,-0.785,-0.081,-0.297,137.499,88.923,-73.862,0.843,179.635,509.0,0.0,run
2026-02-19T16:04:47.688473,-0.785,-0.081,-0.297,137.499,88.923,-73.862,0.843,179.635,509.0,0.0,run
2026-02-19T16:04:47.720258,-0.785,-0.081,-0.297,137.499,88.923,-73.862,0.843,179.635,509.0,0.0,run
2026-02-19T16:04:47.752683,-0.785,-0.081,-0.297,137.499,88.923,-73.862,0.843,179.635,509.0,0.0,run
2026-02-19T16:04:47.785448,-0.785,-0.081,-0.297,137.499,88.923,-73.862,0.843,179.635,509.0,0.0,run
2026-02-19T16:04:47.815768,-0.785,-0.081,-0.297,137.499,88.923,-73.862,0.843,179.635,509.0,0.0,run
2026-02-19T16:04:47.838788,-0.785,-0.081,-0.297,137.499,88.923,-73.862,0.843,179.635,509.0,0.0,run
2026-02-19T16:04:47.866885,-0.785,-0.081,-0.297,137.499,88.923,-73.862,0.843,179.635,509.0,0.0,run
2026-02-19T16:04:47.895134,-0.785,-0.081,-0.297,137.499,88.923,-73.862,0.843,179.635,509.0,0.0,run
2026-02-19T16:04:47.926148,-0.785,-0.081,-0.297,137.499,88.923,-73.862,0.843,179.635,509.0,0.0,run
2026-02-19T16:04:47.932221,-0.785,-0.081,-0.297,137.499,88.923,-73.862,0.843,179.635,509.0,0.0,run
2026-02-19T16:04:47.959309,-0.785,-0.081,-0.297,137.499,88.923,-73.862,0.843,179.635,509.0,0.0,run
2026-02-19T16:04:47.993165,-0.785,-0.081,-0.297,137.499,88.923,-73.862,0.843,179.635,509.0,0.0,run
