timestamp,AX,AY,AZ,GX,GY,GZ,ASVM,GSVM,MCU_TIME,FALL_EVENT,label
2026-02-19T15:14:14.111497,0,0,0,0,0,0,0,0,0,0,idle
2026-02-19T15:14:14.128306,0,0,0,0,0,0,0,0,0,0,idle
2026-02-19T15:14:14.161540,0,0,0,0,0,0,0,0,0,0,idle
2026-02-19T15:14:14.193012,0,0,0,0,0,0,0,0,0,0,idle
2026-02-19T15:14:14.223882,0,0,0,0,0,0,0,0,0,0,idle
2026-02-19T15:14:14.254590,0,0,0,0,0,0,0,0,0,0,idle
2026-02-19T15:14:14.278082,0,0,0,0,0,0,0,0,0,0,idle
2026-02-19T15:14:14.309474,0,0,0,0,0,0,0,0,0,0,idle
2026-02-19T15:14:14.338356,0,0,0,0,0,0,0,0,0,0,idle
2026-02-19T15:14:14.371408,0,0,0,0,0,0,0,0,0,0,idle
2026-02-19T15:14:14.397762,0,0,0,0,0,0,0,0,0,0,idle
2026-02-19T15:14:14.425058,0,0,0,0,0,0,0,0,0,0,idle
2026-02-19T15:14:14.456032,0,0,0,0,0,0,0,0,0,0,idle
2026-02-19T15:14:14.487129,0,0,0,0,0,0,0,0,0,0,idle
2026-02-19T15:14:14.509623,0,0,0,0,0,0,0,0,0,0,idle
2026-02-19T15:14:14.539793,0,0,0,0,0,0,0,0,0,0,idle
2026-02-19T15:14:14.570289,0,0,0,0,0,0,0,0,0,0,idle
2026-02-19T15:14:14.601915,0,0,0,0,0,0,0,0,0,0,idle
2026-02-19T15:14:14.609101,0,0,0,0,0,0,0,0,0,0,idle
2026-02-19T15:14:14.641834,0,0,0,0,0,0,0,0,0,0,idle
2026-02-19T15:14:14.668233,0,0,0,0,0,0,0,0,0,0,idle
2026-02-19T15:14:14.690773,0,0,0,0,0,0,0,0,0,0,idle
2026-02-19T15:14:14.722327,0,0,0,0,0,0,0,0,0,0,idle
2026-02-19T15:14:14.757207,0,0,0,0,0,0,0,0,0,0,idle
2026-02-19T15:14:14.788230,0,0,0,0,0,0,0,0,0,0,idle
2026-02-19T15:14:14.819351,0.013,0.014,1.03,0.299,-0.047,-0.292,1.03,0.42,37877.0,0.0,idle
2026-02-19T15:14:14.842473,0.013,0.014,1.03,0.299,-0.047,-0.292,1.03,0.42,37877.0,0.0,idle
2026-02-19T15:14:14.873064,0.013,0.014,1.03,0.299,-0.047,-0.292,1.03,0.42,37877.0,0.0,idle
2026-02-19T15:14:14.903545,0.013,0.014,1.03,0.299,-0.047,-0.292,1.03,0.42,37877.0,0.0,idle
2026-02-19T15:14:14.934299,0.013,0.014,1.03,0.299,-0.047,-0.292,1.03,0.42,37877.0,0.0,idle
2026-02-19T15:14:14.958273,0.013,0.014,1.03,0.299,-0.047,-0.292,1.03,0.42,37877.0,0.0,idle
2026-02-19T15:14:14.964224,0.013,0.014,1.03,0.299,-0.047,-0.292,1.03,0.42,37877.0,0.0,idle
2026-02-19T15:14:14.992651,0.013,0.014,1.03,0.299,-0.047,-0.292,1.03,0.42,37877.0,0.0,idle
2026-02-19T15:14:15.023829,0.013,0.014,1.03,0.299,-0.047,-0.292,1.03,0.42,37877.0,0.0,idle
2026-02-19T15:14:15.027994,0.013,0.014,1.03,0.299,-0.047,-0.292,1.03,0.42,37877.0,0.0,idle
2026-02-19T15:14:15.058749,0.013,0.014,1.03,0.299,-0.047,-0.292,1.03,0.42,37877.0,0.0,idle
2026-02-19T15:14:15.090138,0.013,0.014,1.03,0.299,-0.047,-0.292,1.03,0.42,37877.0,0.0,idle
2026-02-19T15:14:15.123885,0.013,0.014,1.03,0.299,-0.047,-0.292,1.03,0.42,37877.0,0.0,idle
2026-02-19T15:14:15.147505,0.009,0.014,1.028,0.229,-0.047,-0.292,1.028,0.374,38208.0,0.0,idle
2026-02-19T15:14:15.176959,0.009,0.014,1.028,0.229,-0.047,-0.292,1.028,0.374,38208.0,0.0,idle
2026-02-19T15:14:15.207893,0.009,0.014,1.028,0.229,-0.047,-0.292,1.028,0.374,38208.0,0.0,idle
2026-02-19T15:14:15.239651,0.009,0.014,1.028,0.229,-0.047,-0.292,1.028,0.374,38208.0,0.0,idle
2026-02-19T15:14:15.270419,0.009,0.014,1.028,0.229,-0.047,-0.292,1.028,0.374,38208.0,0.0,idle
2026-02-19T15:14:15.297460,0.009,0.014,1.028,0.229,-0.047,-0.292,1.028,0.374,38208.0,0.0,idle
2026-02-19T15:14:15.333033,0.009,0.014,1.028,0.229,-0.047,-0.292,1.028,0.374,38208.0,0.0,idle
2026-02-19T15:14:15.357729,0.009,0.014,1.028,0.229,-0.047,-0.292,1.028,0.374,38208.0,0.0,idle
2026-02-19T15:14:15.380528,0.009,0.014,1.028,0.229,-0.047,-0.292,1.028,0.374,38208.0,0.0,idle
2026-02-19T15:14:15.410341,0.009,0.014,1.028,0.229,-0.047,-0.292,1.028,0.374,38208.0,0.0,idle
2026-02-19T15:14:15.436020,0.009,0.014,1.028,0.229,-0.047,-0.292,1.028,0.374,38208.0,0.0,idle
2026-02-19T15:14:15.467066,0.009,0.014,1.028,0.229,-0.047,-0.292,1.028,0.374,38208.0,0.0,idle
2026-02-19T15:14:15.508530,0.009,0.014,1.028,0.229,-0.047,-0.292,1.028,0.374,38208.0,0.0,idle
2026-02-19T15:14:15.538238,0.015,0.014,1.027,-0.121,-0.257,-0.292,1.027,0.407,38567.0,0.0,idle
2026-02-19T15:14:15.572839,0.015,0.014,1.027,-0.121,-0.257,-0.292,1.027,0.407,38567.0,0.0,idle
2026-02-19T15:14:15.603687,0.015,0.014,1.027,-0.121,-0.257,-0.292,1.027,0.407,38567.0,0.0,idle
2026-02-19T15:14:15.634757,0.015,0.014,1.027,-0.121,-0.257,-0.292,1.027,0.407,38567.0,0.0,idle
2026-02-19T15:14:15.666120,0.015,0.014,1.027,-0.121,-0.257,-0.292,1.027,0.407,38567.0,0.0,idle
2026-02-19T15:14:15.688598,0.015,0.014,1.027,-0.121,-0.257,-0.292,1.027,0.407,38567.0,0.0,idle
2026-02-19T15:14:15.717250,0.015,0.014,1.027,-0.121,-0.257,-0.292,1.027,0.407,38567.0,0.0,idle
2026-02-19T15:14:15.743733,0.015,0.014,1.027,-0.121,-0.257,-0.292,1.027,0.407,38567.0,0.0,idle
2026-02-19T15:14:15.774620,0.015,0.014,1.027,-0.121,-0.257,-0.292,1.027,0.407,38567.0,0.0,idle
2026-02-19T15:14:15.805138,0.015,0.014,1.027,-0.121,-0.257,-0.292,1.027,0.407,38567.0,0.0,idle
2026-02-19T15:14:15.836104,0.015,0.014,1.027,-0.121,-0.257,-0.292,1.027,0.407,38567.0,0.0,idle
2026-02-19T15:14:15.858049,0.015,0.014,1.027,-0.121,-0.257,-0.292,1.027,0.407,38567.0,0.0,idle
2026-02-19T15:14:15.904658,0.014,0.011,1.031,0.229,-0.047,-0.292,1.031,0.374,38958.0,0.0,idle
2026-02-19T15:14:15.935358,0.014,0.011,1.031,0.229,-0.047,-0.292,1.031,0.374,38958.0,0.0,idle
2026-02-19T15:14:15.966446,0.014,0.011,1.031,0.229,-0.047,-0.292,1.031,0.374,38958.0,0.0,idle
2026-02-19T15:14:15.997511,0.014,0.011,1.031,0.229,-0.047,-0.292,1.031,0.374,38958.0,0.0,idle
2026-02-19T15:14:16.018166,0.014,0.011,1.031,0.229,-0.047,-0.292,1.031,0.374,38958.0,0.0,idle
2026-02-19T15:14:16.041133,0.014,0.011,1.031,0.229,-0.047,-0.292,1.031,0.374,38958.0,0.0,idle
2026-02-19T15:14:16.071151,0.014,0.011,1.031,0.229,-0.047,-0.292,1.031,0.374,38958.0,0.0,idle
2026-02-19T15:14:16.078297,0.014,0.011,1.031,0.229,-0.047,-0.292,1.031,0.374,38958.0,0.0,idle
2026-02-19T15:14:16.108759,0.014,0.011,1.031,0.229,-0.047,-0.292,1.031,0.374,38958.0,0.0,idle
2026-02-19T15:14:16.138599,0.014,0.011,1.031,0.229,-0.047,-0.292,1.031,0.374,38958.0,0.0,idle
2026-02-19T15:14:16.160567,0.014,0.011,1.031,0.229,-0.047,-0.292,1.031,0.374,38958.0,0.0,idle
2026-02-19T15:14:16.191544,0.014,0.011,1.031,0.229,-0.047,-0.292,1.031,0.374,38958.0,0.0,idle
2026-02-19T15:14:16.197648,0.013,0.01,1.028,0.159,-0.117,-0.222,1.028,0.297,39287.0,0.0,idle
2026-02-19T15:14:16.225889,0.013,0.01,1.028,0.159,-0.117,-0.222,1.028,0.297,39287.0,0.0,idle
2026-02-19T15:14:16.256988,0.013,0.01,1.028,0.159,-0.117,-0.222,1.028,0.297,39287.0,0.0,idle
2026-02-19T15:14:16.287983,0.013,0.01,1.028,0.159,-0.117,-0.222,1.028,0.297,39287.0,0.0,idle
2026-02-19T15:14:16.319099,0.013,0.01,1.028,0.159,-0.117,-0.222,1.028,0.297,39287.0,0.0,idle
2026-02-19T15:14:16.347250,0.013,0.01,1.028,0.159,-0.117,-0.222,1.028,0.297,39287.0,0.0,idle
2026-02-19T15:14:16.369812,0.013,0.01,1.028,0.159,-0.117,-0.222,1.028,0.297,39287.0,0.0,idle
2026-02-19T15:14:16.407184,0.013,0.01,1.028,0.159,-0.117,-0.222,1.028,0.297,39287.0,0.0,idle
2026-02-19T15:14:16.440120,0.013,0.01,1.028,0.159,-0.117,-0.222,1.028,0.297,39287.0,0.0,idle
2026-02-19T15:14:16.468084,0.013,0.01,1.028,0.159,-0.117,-0.222,1.028,0.297,39287.0,0.0,idle
2026-02-19T15:14:16.490515,0.013,0.01,1.028,0.159,-0.117,-0.222,1.028,0.297,39287.0,0.0,idle
2026-02-19T15:14:16.521337,0.013,0.01,1.028,0.159,-0.117,-0.222,1.028,0.297,39287.0,0.0,idle
2026-02-19T15:14:16.528509,0.011,0.01,1.031,0.299,-0.117,-0.292,1.031,0.434,39618.0,0.0,idle
2026-02-19T15:14:16.558020,0.011,0.01,1.031,0.299,-0.117,-0.292,1.031,0.434,39618.0,0.0,idle
2026-02-19T15:14:16.589612,0.011,0.01,1.031,0.299,-0.117,-0.292,1.031,0.434,39618.0,0.0,idle
2026-02-19T15:14:16.620896,0.011,0.01,1.031,0.299,-0.117,-0.292,1.031,0.434,39618.0,0.0,idle
2026-02-19T15:14:16.651284,0.011,0.01,1.031,0.299,-0.117,-0.292,1.031,0.434,39618.0,0.0,idle
2026-02-19T15:14:16.678459,0.011,0.01,1.031,0.299,-0.117,-0.292,1.031,0.434,39618.0,0.0,idle
2026-02-19T15:14:16.706780,0.011,0.01,1.031,0.299,-0.117,-0.292,1.031,0.434,39618.0,0.0,idle
2026-02-19T15:14:16.738123,0.011,0.01,1.031,0.299,-0.117,-0.292,1.031,0.434,39618.0,0.0,idle
2026-02-19T15:14:16.775350,0.011,0.01,1.031,0.299,-0.117,-0.292,1.031,0.434,39618.0,0.0,idle
2026-02-19T15:14:16.798652,0.011,0.01,1.031,0.299,-0.117,-0.292,1.031,0.434,39618.0,0.0,idle
2026-02-19T15:14:16.822769,0.011,0.01,1.031,0.299,-0.117,-0.292,1.031,0.434,39618.0,0.0,idle
2026-02-19T15:14:16.853811,0.011,0.01,1.031,0.299,-0.117,-0.292,1.031,0.434,39618.0,0.0,idle
2026-02-19T15:14:16.892202,0.01,0.013,1.032,0.159,-0.117,-0.292,1.032,0.352,39947.0,0.0,idle
2026-02-19T15:14:16.923717,0.01,0.013,1.032,0.159,-0.117,-0.292,1.032,0.352,39947.0,0.0,idle
2026-02-19T15:14:16.953033,0.01,0.013,1.032,0.159,-0.117,-0.292,1.032,0.352,39947.0,0.0,idle
2026-02-19T15:14:16.984220,0.01,0.013,1.032,0.159,-0.117,-0.292,1.032,0.352,39947.0,0.0,idle
2026-02-19T15:14:17.008172,0.01,0.013,1.032,0.159,-0.117,-0.292,1.032,0.352,39947.0,0.0,idle
2026-02-19T15:14:17.036678,0.01,0.013,1.032,0.159,-0.117,-0.292,1.032,0.352,39947.0,0.0,idle
2026-02-19T15:14:17.068459,0.01,0.013,1.032,0.159,-0.117,-0.292,1.032,0.352,39947.0,0.0,idle
2026-02-19T15:14:17.091900,0.01,0.013,1.032,0.159,-0.117,-0.292,1.032,0.352,39947.0,0.0,idle
2026-02-19T15:14:17.122692,0.01,0.013,1.032,0.159,-0.117,-0.292,1.032,0.352,39947.0,0.0,idle
2026-02-19T15:14:17.155058,0.01,0.013,1.032,0.159,-0.117,-0.292,1.032,0.352,39947.0,0.0,idle
2026-02-19T15:14:17.186757,0.01,0.013,1.032,0.159,-0.117,-0.292,1.032,0.352,39947.0,0.0,idle
2026-02-19T15:14:17.225062,0.012,0.011,1.035,0.229,-0.117,-0.222,1.036,0.339,40277.0,0.0,idle
2026-02-19T15:14:17.256314,0.012,0.011,1.035,0.229,-0.117,-0.222,1.036,0.339,40277.0,0.0,idle
2026-02-19T15:14:17.286890,0.012,0.011,1.035,0.229,-0.117,-0.222,1.036,0.339,40277.0,0.0,idle
2026-02-19T15:14:17.317315,0.012,0.011,1.035,0.229,-0.117,-0.222,1.036,0.339,40277.0,0.0,idle
2026-02-19T15:14:17.337959,0.012,0.011,1.035,0.229,-0.117,-0.222,1.036,0.339,40277.0,0.0,idle
2026-02-19T15:14:17.372789,0.012,0.011,1.035,0.229,-0.117,-0.222,1.036,0.339,40277.0,0.0,idle
2026-02-19T15:14:17.397756,0.012,0.011,1.035,0.229,-0.117,-0.222,1.036,0.339,40277.0,0.0,idle
2026-02-19T15:14:17.419079,0.012,0.011,1.035,0.229,-0.117,-0.222,1.036,0.339,40277.0,0.0,idle
2026-02-19T15:14:17.441928,0.012,0.011,1.035,0.229,-0.117,-0.222,1.036,0.339,40277.0,0.0,idle
2026-02-19T15:14:17.458852,0.012,0.011,1.035,0.229,-0.117,-0.222,1.036,0.339,40277.0,0.0,idle
2026-02-19T15:14:17.489269,0.012,0.011,1.035,0.229,-0.117,-0.222,1.036,0.339,40277.0,0.0,idle
2026-02-19T15:14:17.516142,0.013,0.013,1.03,0.159,-0.047,-0.222,1.03,0.277,40607.0,0.0,idle
2026-02-19T15:14:17.541047,0.013,0.013,1.03,0.159,-0.047,-0.222,1.03,0.277,40607.0,0.0,idle
2026-02-19T15:14:17.572694,0.013,0.013,1.03,0.159,-0.047,-0.222,1.03,0.277,40607.0,0.0,idle
2026-02-19T15:14:17.603611,0.013,0.013,1.03,0.159,-0.047,-0.222,1.03,0.277,40607.0,0.0,idle
2026-02-19T15:14:17.634901,0.013,0.013,1.03,0.159,-0.047,-0.222,1.03,0.277,40607.0,0.0,idle
2026-02-19T15:14:17.666115,0.013,0.013,1.03,0.159,-0.047,-0.222,1.03,0.277,40607.0,0.0,idle
2026-02-19T15:14:17.689075,0.013,0.013,1.03,0.159,-0.047,-0.222,1.03,0.277,40607.0,0.0,idle
2026-02-19T15:14:17.721925,0.013,0.013,1.03,0.159,-0.047,-0.222,1.03,0.277,40607.0,0.0,idle
2026-02-19T15:14:17.753172,0.013,0.013,1.03,0.159,-0.047,-0.222,1.03,0.277,40607.0,0.0,idle
2026-02-19T15:14:17.786761,0.013,0.013,1.03,0.159,-0.047,-0.222,1.03,0.277,40607.0,0.0,idle
2026-02-19T15:14:17.820803,0.013,0.013,1.03,0.159,-0.047,-0.222,1.03,0.277,40607.0,0.0,idle
2026-02-19T15:14:17.847765,0.012,0.013,1.029,0.229,-0.047,-0.152,1.029,0.279,40937.0,0.0,idle
2026-02-19T15:14:17.872458,0.012,0.013,1.029,0.229,-0.047,-0.152,1.029,0.279,40937.0,0.0,idle
2026-02-19T15:14:17.903597,0.012,0.013,1.029,0.229,-0.047,-0.152,1.029,0.279,40937.0,0.0,idle
2026-02-19T15:14:17.935088,0.012,0.013,1.029,0.229,-0.047,-0.152,1.029,0.279,40937.0,0.0,idle
2026-02-19T15:14:17.966681,0.012,0.013,1.029,0.229,-0.047,-0.152,1.029,0.279,40937.0,0.0,idle
2026-02-19T15:14:17.991358,0.012,0.013,1.029,0.229,-0.047,-0.152,1.029,0.279,40937.0,0.0,idle
2026-02-19T15:14:18.022881,0.012,0.013,1.029,0.229,-0.047,-0.152,1.029,0.279,40937.0,0.0,idle
2026-02-19T15:14:18.054750,0.012,0.013,1.029,0.229,-0.047,-0.152,1.029,0.279,40937.0,0.0,idle
2026-02-19T15:14:18.057291,0.012,0.013,1.029,0.229,-0.047,-0.152,1.029,0.279,40937.0,0.0,idle
2026-02-19T15:14:18.087686,0.012,0.013,1.029,0.229,-0.047,-0.152,1.029,0.279,40937.0,0.0,idle
2026-02-19T15:14:18.117443,0.012,0.013,1.029,0.229,-0.047,-0.152,1.029,0.279,40937.0,0.0,idle
2026-02-19T15:14:18.149370,0.012,0.013,1.029,0.229,-0.047,-0.152,1.029,0.279,40937.0,0.0,idle
2026-02-19T15:14:18.177895,0.014,0.01,1.03,0.299,0.023,-0.222,1.03,0.373,41267.0,0.0,idle
2026-02-19T15:14:18.202687,0.014,0.01,1.03,0.299,0.023,-0.222,1.03,0.373,41267.0,0.0,idle
2026-02-19T15:14:18.233750,0.014,0.01,1.03,0.299,0.023,-0.222,1.03,0.373,41267.0,0.0,idle
2026-02-19T15:14:18.264684,0.014,0.01,1.03,0.299,0.023,-0.222,1.03,0.373,41267.0,0.0,idle
2026-02-19T15:14:18.295729,0.014,0.01,1.03,0.299,0.023,-0.222,1.03,0.373,41267.0,0.0,idle
2026-02-19T15:14:18.336240,0.014,0.01,1.03,0.299,0.023,-0.222,1.03,0.373,41267.0,0.0,idle
2026-02-19T15:14:18.337921,0.014,0.01,1.03,0.299,0.023,-0.222,1.03,0.373,41267.0,0.0,idle
2026-02-19T15:14:18.372384,0.014,0.01,1.03,0.299,0.023,-0.222,1.03,0.373,41267.0,0.0,idle
2026-02-19T15:14:18.389482,0.014,0.01,1.03,0.299,0.023,-0.222,1.03,0.373,41267.0,0.0,idle
2026-02-19T15:14:18.424938,0.014,0.01,1.03,0.299,0.023,-0.222,1.03,0.373,41267.0,0.0,idle
2026-02-19T15:14:18.448124,0.014,0.01,1.03,0.299,0.023,-0.222,1.03,0.373,41267.0,0.0,idle
2026-02-19T15:14:18.477395,0.014,0.01,1.03,0.299,0.023,-0.222,1.03,0.373,41267.0,0.0,idle
2026-02-19T15:14:18.507998,0.014,0.01,1.03,0.299,0.023,-0.222,1.03,0.373,41267.0,0.0,idle
2026-02-19T15:14:18.539730,0.016,0.012,1.029,0.159,-0.047,-0.222,1.029,0.277,41597.0,0.0,idle
2026-02-19T15:14:18.570986,0.016,0.012,1.029,0.159,-0.047,-0.222,1.029,0.277,41597.0,0.0,idle
2026-02-19T15:14:18.601682,0.016,0.012,1.029,0.159,-0.047,-0.222,1.029,0.277,41597.0,0.0,idle
2026-02-19T15:14:18.632356,0.016,0.012,1.029,0.159,-0.047,-0.222,1.029,0.277,41597.0,0.0,idle
2026-02-19T15:14:18.658103,0.016,0.012,1.029,0.159,-0.047,-0.222,1.029,0.277,41597.0,0.0,idle
2026-02-19T15:14:18.690589,0.016,0.012,1.029,0.159,-0.047,-0.222,1.029,0.277,41597.0,0.0,idle
2026-02-19T15:14:18.718903,0.016,0.012,1.029,0.159,-0.047,-0.222,1.029,0.277,41597.0,0.0,idle
2026-02-19T15:14:18.741615,0.016,0.012,1.029,0.159,-0.047,-0.222,1.029,0.277,41597.0,0.0,idle
2026-02-19T15:14:18.772699,0.016,0.012,1.029,0.159,-0.047,-0.222,1.029,0.277,41597.0,0.0,idle
2026-02-19T15:14:18.778515,0.016,0.012,1.029,0.159,-0.047,-0.222,1.029,0.277,41597.0,0.0,idle
2026-02-19T15:14:18.804725,0.016,0.012,1.029,0.159,-0.047,-0.222,1.029,0.277,41597.0,0.0,idle
2026-02-19T15:14:18.835738,0.016,0.012,1.029,0.159,-0.047,-0.222,1.029,0.277,41597.0,0.0,idle
2026-02-19T15:14:18.837846,0.012,0.011,1.03,0.089,-0.187,-0.292,1.03,0.358,41927.0,0.0,idle
2026-02-19T15:14:18.874876,0.012,0.011,1.03,0.089,-0.187,-0.292,1.03,0.358,41927.0,0.0,idle
2026-02-19T15:14:18.905945,0.012,0.011,1.03,0.089,-0.187,-0.292,1.03,0.358,41927.0,0.0,idle
2026-02-19T15:14:18.937600,0.012,0.011,1.03,0.089,-0.187,-0.292,1.03,0.358,41927.0,0.0,idle
2026-02-19T15:14:18.969644,0.012,0.011,1.03,0.089,-0.187,-0.292,1.03,0.358,41927.0,0.0,idle
2026-02-19T15:14:18.988993,0.012,0.011,1.03,0.089,-0.187,-0.292,1.03,0.358,41927.0,0.0,idle
2026-02-19T15:16:01.428450,0,0,0,0,0,0,0,0,0,0,idle
2026-02-19T15:16:01.461554,0,0,0,0,0,0,0,0,0,0,idle
2026-02-19T15:16:01.468630,0,0,0,0,0,0,0,0,0,0,idle
2026-02-19T15:16:01.498954,0,0,0,0,0,0,0,0,0,0,idle
2026-02-19T15:16:01.527232,0,0,0,0,0,0,0,0,0,0,idle
2026-02-19T15:16:01.549507,0,0,0,0,0,0,0,0,0,0,idle
2026-02-19T15:16:01.580230,0,0,0,0,0,0,0,0,0,0,idle
2026-02-19T15:16:01.615022,0,0,0,0,0,0,0,0,0,0,idle
2026-02-19T15:16:01.646258,0,0,0,0,0,0,0,0,0,0,idle
2026-02-19T15:16:01.677423,0,0,0,0,0,0,0,0,0,0,idle
2026-02-19T15:16:01.701949,0,0,0,0,0,0,0,0,0,0,idle
2026-02-19T15:16:01.733019,0,0,0,0,0,0,0,0,0,0,idle
2026-02-19T15:16:01.767209,0,0,0,0,0,0,0,0,0,0,idle
2026-02-19T15:16:01.797690,0,0,0,0,0,0,0,0,0,0,idle
2026-02-19T15:16:01.832659,0,0,0,0,0,0,0,0,0,0,idle
2026-02-19T15:16:01.857071,0,0,0,0,0,0,0,0,0,0,idle
2026-02-19T15:16:01.893520,0,0,0,0,0,0,0,0,0,0,idle
2026-02-19T15:16:01.916612,0,0,0,0,0,0,0,0,0,0,idle
2026-02-19T15:16:01.947719,0,0,0,0,0,0,0,0,0,0,idle
2026-02-19T15:16:01.978623,0,0,0,0,0,0,0,0,0,0,idle
2026-02-19T15:16:02.008066,0,0,0,0,0,0,0,0,0,0,idle
2026-02-19T15:16:02.035213,0,0,0,0,0,0,0,0,0,0,idle
2026-02-19T15:16:02.067040,0,0,0,0,0,0,0,0,0,0,idle
2026-02-19T15:16:02.098058,0,0,0,0,0,0,0,0,0,0,idle
2026-02-19T15:16:02.128348,0,0,0,0,0,0,0,0,0,0,idle
2026-02-19T15:16:02.165360,0,0,0,0,0,0,0,0,0,0,idle
2026-02-19T15:16:02.188191,0,0,0,0,0,0,0,0,0,0,idle
2026-02-19T15:16:02.214106,0,0,0,0,0,0,0,0,0,0,idle
2026-02-19T15:16:02.245886,0,0,0,0,0,0,0,0,0,0,idle
2026-02-19T15:16:02.277459,0,0,0,0,0,0,0,0,0,0,idle
2026-02-19T15:16:02.308016,0,0,0,0,0,0,0,0,0,0,idle
2026-02-19T15:16:02.338182,0,0,0,0,0,0,0,0,0,0,idle
2026-02-19T15:16:02.366777,0,0,0,0,0,0,0,0,0,0,idle
2026-02-19T15:16:02.397944,0,0,0,0,0,0,0,0,0,0,idle
2026-02-19T15:16:02.428695,0,0,0,0,0,0,0,0,0,0,idle
2026-02-19T15:16:02.456987,0,0,0,0,0,0,0,0,0,0,idle
2026-02-19T15:16:02.480145,0,0,0,0,0,0,0,0,0,0,idle
2026-02-19T15:16:02.511535,0,0,0,0,0,0,0,0,0,0,idle
2026-02-19T15:16:02.547631,0,0,0,0,0,0,0,0,0,0,idle
2026-02-19T15:16:02.587051,0,0,0,0,0,0,0,0,0,0,idle
2026-02-19T15:16:02.619665,0,0,0,0,0,0,0,0,0,0,idle
2026-02-19T15:16:02.644673,0,0,0,0,0,0,0,0,0,0,idle
2026-02-19T15:16:02.668374,0,0,0,0,0,0,0,0,0,0,idle
2026-02-19T15:16:02.690632,0,0,0,0,0,0,0,0,0,0,idle
2026-02-19T15:16:02.722300,0,0,0,0,0,0,0,0,0,0,idle
2026-02-19T15:16:02.734513,0,0,0,0,0,0,0,0,0,0,idle
2026-02-19T15:16:02.767242,0,0,0,0,0,0,0,0,0,0,idle
2026-02-19T15:16:02.788363,0,0,0,0,0,0,0,0,0,0,idle
2026-02-19T15:16:02.817134,0,0,0,0,0,0,0,0,0,0,idle
2026-02-19T15:16:02.847075,0,0,0,0,0,0,0,0,0,0,idle
2026-02-19T15:16:02.881710,0.014,0.01,1.029,0.089,-0.117,-0.292,1.029,0.327,145941.0,0.0,idle
2026-02-19T15:16:02.912332,0.014,0.01,1.029,0.089,-0.117,-0.292,1.029,0.327,145941.0,0.0,idle
2026-02-19T15:16:02.943391,0.014,0.01,1.029,0.089,-0.117,-0.292,1.029,0.327,145941.0,0.0,idle
2026-02-19T15:16:02.974480,0.014,0.01,1.029,0.089,-0.117,-0.292,1.029,0.327,145941.0,0.0,idle
2026-02-19T15:16:02.998808,0.014,0.01,1.029,0.089,-0.117,-0.292,1.029,0.327,145941.0,0.0,idle
2026-02-19T15:16:03.034235,0.014,0.01,1.029,0.089,-0.117,-0.292,1.029,0.327,145941.0,0.0,idle
2026-02-19T15:16:03.056950,0.014,0.01,1.029,0.089,-0.117,-0.292,1.029,0.327,145941.0,0.0,idle
2026-02-19T15:16:03.082287,0.014,0.01,1.029,0.089,-0.117,-0.292,1.029,0.327,145941.0,0.0,idle
2026-02-19T15:16:03.112880,0.014,0.01,1.029,0.089,-0.117,-0.292,1.029,0.327,145941.0,0.0,idle
2026-02-19T15:16:03.152807,0.014,0.01,1.029,0.089,-0.117,-0.292,1.029,0.327,145941.0,0.0,idle
2026-02-19T15:16:03.178469,0.011,0.011,1.032,0.159,0.023,-0.362,1.032,0.396,146271.0,0.0,idle
2026-02-19T15:16:03.216007,0.011,0.011,1.032,0.159,0.023,-0.362,1.032,0.396,146271.0,0.0,idle
2026-02-19T15:16:03.245829,0.011,0.011,1.032,0.159,0.023,-0.362,1.032,0.396,146271.0,0.0,idle
2026-02-19T15:16:03.277076,0.011,0.011,1.032,0.159,0.023,-0.362,1.032,0.396,146271.0,0.0,idle
2026-02-19T15:16:03.307664,0.011,0.011,1.032,0.159,0.023,-0.362,1.032,0.396,146271.0,0.0,idle
2026-02-19T15:16:03.327295,0.011,0.011,1.032,0.159,0.023,-0.362,1.032,0.396,146271.0,0.0,idle
2026-02-19T15:16:03.351452,0.011,0.011,1.032,0.159,0.023,-0.362,1.032,0.396,146271.0,0.0,idle
2026-02-19T15:16:03.383390,0.011,0.011,1.032,0.159,0.023,-0.362,1.032,0.396,146271.0,0.0,idle
2026-02-19T15:16:03.387944,0.011,0.011,1.032,0.159,0.023,-0.362,1.032,0.396,146271.0,0.0,idle
2026-02-19T15:16:03.419287,0.011,0.011,1.032,0.159,0.023,-0.362,1.032,0.396,146271.0,0.0,idle
2026-02-19T15:16:03.442385,0.011,0.011,1.032,0.159,0.023,-0.362,1.032,0.396,146271.0,0.0,idle
2026-02-19T15:16:03.465937,0.011,0.011,1.032,0.159,0.023,-0.362,1.032,0.396,146271.0,0.0,idle
2026-02-19T15:16:03.496109,0.011,0.011,1.032,0.159,0.023,-0.362,1.032,0.396,146271.0,0.0,idle
2026-02-19T15:16:03.543120,0.013,0.011,1.03,0.229,-0.047,-0.222,1.03,0.322,146601.0,0.0,idle
2026-02-19T15:16:03.579812,0.013,0.011,1.03,0.229,-0.047,-0.222,1.03,0.322,146601.0,0.0,idle
2026-02-19T15:16:03.611037,0.013,0.011,1.03,0.229,-0.047,-0.222,1.03,0.322,146601.0,0.0,idle
2026-02-19T15:16:03.636237,0.013,0.011,1.03,0.229,-0.047,-0.222,1.03,0.322,146601.0,0.0,idle
2026-02-19T15:16:03.658075,0.013,0.011,1.03,0.229,-0.047,-0.222,1.03,0.322,146601.0,0.0,idle
2026-02-19T15:16:03.685531,0.013,0.011,1.03,0.229,-0.047,-0.222,1.03,0.322,146601.0,0.0,idle
2026-02-19T15:16:03.716875,0.013,0.011,1.03,0.229,-0.047,-0.222,1.03,0.322,146601.0,0.0,idle
2026-02-19T15:16:03.749823,0.013,0.011,1.03,0.229,-0.047,-0.222,1.03,0.322,146601.0,0.0,idle
2026-02-19T15:16:03.777889,0.013,0.011,1.03,0.229,-0.047,-0.222,1.03,0.322,146601.0,0.0,idle
2026-02-19T15:16:03.803182,0.013,0.011,1.03,0.229,-0.047,-0.222,1.03,0.322,146601.0,0.0,idle
2026-02-19T15:16:03.834606,0.013,0.011,1.03,0.229,-0.047,-0.222,1.03,0.322,146601.0,0.0,idle
2026-02-19T15:16:03.837447,0.014,0.013,1.029,0.229,-0.047,-0.292,1.029,0.374,146931.0,0.0,idle
2026-02-19T15:16:03.865485,0.014,0.013,1.029,0.229,-0.047,-0.292,1.029,0.374,146931.0,0.0,idle
2026-02-19T15:16:03.896147,0.014,0.013,1.029,0.229,-0.047,-0.292,1.029,0.374,146931.0,0.0,idle
2026-02-19T15:16:03.927805,0.014,0.013,1.029,0.229,-0.047,-0.292,1.029,0.374,146931.0,0.0,idle
2026-02-19T15:16:03.959042,0.014,0.013,1.029,0.229,-0.047,-0.292,1.029,0.374,146931.0,0.0,idle
2026-02-19T15:16:03.982356,0.014,0.013,1.029,0.229,-0.047,-0.292,1.029,0.374,146931.0,0.0,idle
2026-02-19T15:16:04.016782,0.014,0.013,1.029,0.229,-0.047,-0.292,1.029,0.374,146931.0,0.0,idle
2026-02-19T15:16:04.046557,0.014,0.013,1.029,0.229,-0.047,-0.292,1.029,0.374,146931.0,0.0,idle
2026-02-19T15:16:04.077589,0.014,0.013,1.029,0.229,-0.047,-0.292,1.029,0.374,146931.0,0.0,idle
2026-02-19T15:16:04.107411,0.014,0.013,1.029,0.229,-0.047,-0.292,1.029,0.374,146931.0,0.0,idle
2026-02-19T15:16:04.139986,0.014,0.013,1.029,0.229,-0.047,-0.292,1.029,0.374,146931.0,0.0,idle
2026-02-19T15:16:04.167919,0.011,0.01,1.028,0.299,-0.117,-0.292,1.028,0.434,147261.0,0.0,idle
2026-02-19T15:16:04.200847,0.011,0.01,1.028,0.299,-0.117,-0.292,1.028,0.434,147261.0,0.0,idle
2026-02-19T15:16:04.231949,0.011,0.01,1.028,0.299,-0.117,-0.292,1.028,0.434,147261.0,0.0,idle
2026-02-19T15:16:04.262788,0.011,0.01,1.028,0.299,-0.117,-0.292,1.028,0.434,147261.0,0.0,idle
2026-02-19T15:16:04.293295,0.011,0.01,1.028,0.299,-0.117,-0.292,1.028,0.434,147261.0,0.0,idle
2026-02-19T15:16:04.317690,0.011,0.01,1.028,0.299,-0.117,-0.292,1.028,0.434,147261.0,0.0,idle
2026-02-19T15:16:04.349473,0.011,0.01,1.028,0.299,-0.117,-0.292,1.028,0.434,147261.0,0.0,idle
2026-02-19T15:16:04.377779,0.011,0.01,1.028,0.299,-0.117,-0.292,1.028,0.434,147261.0,0.0,idle
2026-02-19T15:16:04.413165,0.011,0.01,1.028,0.299,-0.117,-0.292,1.028,0.434,147261.0,0.0,idle
2026-02-19T15:16:04.437635,0.011,0.01,1.028,0.299,-0.117,-0.292,1.028,0.434,147261.0,0.0,idle
2026-02-19T15:16:04.465356,0.011,0.01,1.028,0.299,-0.117,-0.292,1.028,0.434,147261.0,0.0,idle
2026-02-19T15:16:04.495997,0.011,0.01,1.028,0.299,-0.117,-0.292,1.028,0.434,147261.0,0.0,idle
2026-02-19T15:16:04.532546,0.011,0.01,1.03,0.159,-0.117,-0.292,1.03,0.352,147591.0,0.0,idle
2026-02-19T15:16:04.563039,0.011,0.01,1.03,0.159,-0.117,-0.292,1.03,0.352,147591.0,0.0,idle
2026-02-19T15:16:04.593700,0.011,0.01,1.03,0.159,-0.117,-0.292,1.03,0.352,147591.0,0.0,idle
2026-02-19T15:16:04.624236,0.011,0.01,1.03,0.159,-0.117,-0.292,1.03,0.352,147591.0,0.0,idle
2026-02-19T15:16:04.647357,0.011,0.01,1.03,0.159,-0.117,-0.292,1.03,0.352,147591.0,0.0,idle
2026-02-19T15:16:04.669744,0.011,0.01,1.03,0.159,-0.117,-0.292,1.03,0.352,147591.0,0.0,idle
2026-02-19T15:16:04.699404,0.011,0.01,1.03,0.159,-0.117,-0.292,1.03,0.352,147591.0,0.0,idle
2026-02-19T15:16:04.729308,0.011,0.01,1.03,0.159,-0.117,-0.292,1.03,0.352,147591.0,0.0,idle
2026-02-19T15:16:04.760175,0.011,0.01,1.03,0.159,-0.117,-0.292,1.03,0.352,147591.0,0.0,idle
2026-02-19T15:16:04.797277,0.011,0.01,1.03,0.159,-0.117,-0.292,1.03,0.352,147591.0,0.0,idle
2026-02-19T15:16:04.828035,0.011,0.01,1.03,0.159,-0.117,-0.292,1.03,0.352,147591.0,0.0,idle
2026-02-19T15:16:04.861934,0.013,0.01,1.031,0.159,0.023,-0.222,1.031,0.274,147921.0,0.0,idle
2026-02-19T15:16:04.896046,0.013,0.01,1.031,0.159,0.023,-0.222,1.031,0.274,147921.0,0.0,idle
2026-02-19T15:16:04.926795,0.013,0.01,1.031,0.159,0.023,-0.222,1.031,0.274,147921.0,0.0,idle
2026-02-19T15:16:04.957241,0.013,0.01,1.031,0.159,0.023,-0.222,1.031,0.274,147921.0,0.0,idle
2026-02-19T15:16:04.977808,0.013,0.01,1.031,0.159,0.023,-0.222,1.031,0.274,147921.0,0.0,idle
2026-02-19T15:16:05.000084,0.013,0.01,1.031,0.159,0.023,-0.222,1.031,0.274,147921.0,0.0,idle
2026-02-19T15:16:05.035378,0.013,0.01,1.031,0.159,0.023,-0.222,1.031,0.274,147921.0,0.0,idle
2026-02-19T15:16:05.066396,0.013,0.01,1.031,0.159,0.023,-0.222,1.031,0.274,147921.0,0.0,idle
2026-02-19T15:16:05.097974,0.013,0.01,1.031,0.159,0.023,-0.222,1.031,0.274,147921.0,0.0,idle
2026-02-19T15:16:05.132305,0.013,0.01,1.031,0.159,0.023,-0.222,1.031,0.274,147921.0,0.0,idle
2026-02-19T15:16:05.156953,0.013,0.01,1.03,0.299,-0.047,-0.222,1.03,0.375,148251.0,0.0,idle
2026-02-19T15:16:05.182532,0.013,0.01,1.03,0.299,-0.047,-0.222,1.03,0.375,148251.0,0.0,idle
2026-02-19T15:16:05.212835,0.013,0.01,1.03,0.299,-0.047,-0.222,1.03,0.375,148251.0,0.0,idle
2026-02-19T15:16:05.244619,0.013,0.01,1.03,0.299,-0.047,-0.222,1.03,0.375,148251.0,0.0,idle
2026-02-19T15:16:05.275109,0.013,0.01,1.03,0.299,-0.047,-0.222,1.03,0.375,148251.0,0.0,idle
2026-02-19T15:16:05.301491,0.013,0.01,1.03,0.299,-0.047,-0.222,1.03,0.375,148251.0,0.0,idle
2026-02-19T15:16:05.333225,0.013,0.01,1.03,0.299,-0.047,-0.222,1.03,0.375,148251.0,0.0,idle
2026-02-19T15:16:05.364332,0.013,0.01,1.03,0.299,-0.047,-0.222,1.03,0.375,148251.0,0.0,idle
2026-02-19T15:16:05.401308,0.013,0.01,1.03,0.299,-0.047,-0.222,1.03,0.375,148251.0,0.0,idle
2026-02-19T15:16:05.422584,0.013,0.01,1.03,0.299,-0.047,-0.222,1.03,0.375,148251.0,0.0,idle
2026-02-19T15:16:05.453286,0.013,0.01,1.03,0.299,-0.047,-0.222,1.03,0.375,148251.0,0.0,idle
2026-02-19T15:16:05.483753,0.013,0.01,1.03,0.299,-0.047,-0.222,1.03,0.375,148251.0,0.0,idle
2026-02-19T15:16:05.516173,0.012,0.012,1.031,0.229,-0.117,-0.222,1.031,0.339,148582.0,0.0,idle
2026-02-19T15:16:05.545816,0.012,0.012,1.031,0.229,-0.117,-0.222,1.031,0.339,148582.0,0.0,idle
2026-02-19T15:16:05.577187,0.012,0.012,1.031,0.229,-0.117,-0.222,1.031,0.339,148582.0,0.0,idle
2026-02-19T15:16:05.608028,0.012,0.012,1.031,0.229,-0.117,-0.222,1.031,0.339,148582.0,0.0,idle
2026-02-19T15:16:05.634042,0.012,0.012,1.031,0.229,-0.117,-0.222,1.031,0.339,148582.0,0.0,idle
2026-02-19T15:16:05.637588,0.012,0.012,1.031,0.229,-0.117,-0.222,1.031,0.339,148582.0,0.0,idle
2026-02-19T15:16:05.664810,0.012,0.012,1.031,0.229,-0.117,-0.222,1.031,0.339,148582.0,0.0,idle
2026-02-19T15:16:05.695302,0.012,0.012,1.031,0.229,-0.117,-0.222,1.031,0.339,148582.0,0.0,idle
2026-02-19T15:16:05.697826,0.012,0.012,1.031,0.229,-0.117,-0.222,1.031,0.339,148582.0,0.0,idle
2026-02-19T15:16:05.720456,0.012,0.012,1.031,0.229,-0.117,-0.222,1.031,0.339,148582.0,0.0,idle
2026-02-19T15:16:05.745683,0.012,0.012,1.031,0.229,-0.117,-0.222,1.031,0.339,148582.0,0.0,idle
2026-02-19T15:16:05.792469,0.012,0.012,1.031,0.229,-0.117,-0.222,1.031,0.339,148582.0,0.0,idle
2026-02-19T15:16:05.818277,0.012,0.012,1.031,0.229,-0.117,-0.222,1.031,0.339,148582.0,0.0,idle
2026-02-19T15:16:05.849832,0.013,0.011,1.031,0.229,-0.117,-0.362,1.031,0.444,148912.0,0.0,idle
2026-02-19T15:16:05.879839,0.013,0.011,1.031,0.229,-0.117,-0.362,1.031,0.444,148912.0,0.0,idle
2026-02-19T15:16:05.911353,0.013,0.011,1.031,0.229,-0.117,-0.362,1.031,0.444,148912.0,0.0,idle
2026-02-19T15:16:05.942858,0.013,0.011,1.031,0.229,-0.117,-0.362,1.031,0.444,148912.0,0.0,idle
2026-02-19T15:16:05.965799,0.013,0.011,1.031,0.229,-0.117,-0.362,1.031,0.444,148912.0,0.0,idle
2026-02-19T15:16:05.997955,0.013,0.011,1.031,0.229,-0.117,-0.362,1.031,0.444,148912.0,0.0,idle
2026-02-19T15:16:06.034084,0.013,0.011,1.031,0.229,-0.117,-0.362,1.031,0.444,148912.0,0.0,idle
2026-02-19T15:16:06.058219,0.013,0.011,1.031,0.229,-0.117,-0.362,1.031,0.444,148912.0,0.0,idle
2026-02-19T15:16:06.080927,0.013,0.011,1.031,0.229,-0.117,-0.362,1.031,0.444,148912.0,0.0,idle
2026-02-19T15:16:06.112230,0.013,0.011,1.031,0.229,-0.117,-0.362,1.031,0.444,148912.0,0.0,idle
2026-02-19T15:16:06.146982,0.013,0.011,1.031,0.229,-0.117,-0.362,1.031,0.444,148912.0,0.0,idle
2026-02-19T15:16:06.177325,0.013,0.011,1.031,0.229,-0.117,-0.362,1.031,0.444,148912.0,0.0,idle
2026-02-19T15:16:06.201978,0.013,0.011,1.031,0.229,-0.117,-0.362,1.031,0.444,148912.0,0.0,idle
2026-02-19T15:16:06.233281,0.013,0.009,1.03,0.159,-0.047,-0.292,1.03,0.335,149242.0,0.0,idle
2026-02-19T15:16:06.265119,0.013,0.009,1.03,0.159,-0.047,-0.292,1.03,0.335,149242.0,0.0,idle
2026-02-19T15:16:06.294627,0.013,0.009,1.03,0.159,-0.047,-0.292,1.03,0.335,149242.0,0.0,idle
2026-02-19T15:16:06.326160,0.013,0.009,1.03,0.159,-0.047,-0.292,1.03,0.335,149242.0,0.0,idle
2026-02-19T15:16:06.356557,0.013,0.009,1.03,0.159,-0.047,-0.292,1.03,0.335,149242.0,0.0,idle
2026-02-19T15:16:06.384564,0.013,0.009,1.03,0.159,-0.047,-0.292,1.03,0.335,149242.0,0.0,idle
2026-02-19T15:16:06.415338,0.013,0.009,1.03,0.159,-0.047,-0.292,1.03,0.335,149242.0,0.0,idle
2026-02-19T15:16:06.449347,0.013,0.009,1.03,0.159,-0.047,-0.292,1.03,0.335,149242.0,0.0,idle
2026-02-19T15:16:06.478232,0.013,0.009,1.03,0.159,-0.047,-0.292,1.03,0.335,149242.0,0.0,idle
2026-02-19T15:16:06.513184,0.013,0.009,1.03,0.159,-0.047,-0.292,1.03,0.335,149242.0,0.0,idle
2026-02-19T15:16:06.550669,0.013,0.009,1.03,0.159,-0.047,-0.292,1.03,0.335,149242.0,0.0,idle
2026-02-19T15:16:06.568034,0.012,0.01,1.028,0.299,0.023,-0.292,1.028,0.418,149631.0,0.0,idle
2026-02-19T15:16:06.597372,0.012,0.01,1.028,0.299,0.023,-0.292,1.028,0.418,149631.0,0.0,idle
2026-02-19T15:16:06.628541,0.012,0.01,1.028,0.299,0.023,-0.292,1.028,0.418,149631.0,0.0,idle
2026-02-19T15:16:06.659958,0.012,0.01,1.028,0.299,0.023,-0.292,1.028,0.418,149631.0,0.0,idle
2026-02-19T15:16:06.687960,0.012,0.01,1.028,0.299,0.023,-0.292,1.028,0.418,149631.0,0.0,idle
2026-02-19T15:16:06.720362,0.012,0.01,1.028,0.299,0.023,-0.292,1.028,0.418,149631.0,0.0,idle
2026-02-19T15:16:06.750690,0.012,0.01,1.028,0.299,0.023,-0.292,1.028,0.418,149631.0,0.0,idle
2026-02-19T15:16:06.777926,0.012,0.01,1.028,0.299,0.023,-0.292,1.028,0.418,149631.0,0.0,idle
2026-02-19T15:16:06.812645,0.012,0.01,1.028,0.299,0.023,-0.292,1.028,0.418,149631.0,0.0,idle
2026-02-19T15:16:06.837146,0.012,0.01,1.028,0.299,0.023,-0.292,1.028,0.418,149631.0,0.0,idle
2026-02-19T15:16:06.858941,0.012,0.01,1.028,0.299,0.023,-0.292,1.028,0.418,149631.0,0.0,idle
2026-02-19T15:16:06.883777,0.012,0.01,1.028,0.299,0.023,-0.292,1.028,0.418,149631.0,0.0,idle
2026-02-19T15:16:06.930074,0.013,0.012,1.03,0.159,-0.047,-0.222,1.03,0.277,149961.0,0.0,idle
2026-02-19T15:16:06.945709,0.013,0.012,1.03,0.159,-0.047,-0.222,1.03,0.277,149961.0,0.0,idle
2026-02-19T15:16:06.976673,0.013,0.012,1.03,0.159,-0.047,-0.222,1.03,0.277,149961.0,0.0,idle
2026-02-19T15:16:07.007117,0.013,0.012,1.03,0.159,-0.047,-0.222,1.03,0.277,149961.0,0.0,idle
2026-02-19T15:16:07.038108,0.013,0.012,1.03,0.159,-0.047,-0.222,1.03,0.277,149961.0,0.0,idle
2026-02-19T15:16:07.049042,0.013,0.012,1.03,0.159,-0.047,-0.222,1.03,0.277,149961.0,0.0,idle
2026-02-19T15:16:07.083362,0.013,0.012,1.03,0.159,-0.047,-0.222,1.03,0.277,149961.0,0.0,idle
2026-02-19T15:16:07.106463,0.013,0.012,1.03,0.159,-0.047,-0.222,1.03,0.277,149961.0,0.0,idle
2026-02-19T15:16:07.131175,0.013,0.012,1.03,0.159,-0.047,-0.222,1.03,0.277,149961.0,0.0,idle
2026-02-19T15:16:07.162756,0.013,0.012,1.03,0.159,-0.047,-0.222,1.03,0.277,149961.0,0.0,idle
2026-02-19T15:16:07.168313,0.013,0.012,1.03,0.159,-0.047,-0.222,1.03,0.277,149961.0,0.0,idle
2026-02-19T15:16:07.196894,0.013,0.012,1.03,0.159,-0.047,-0.222,1.03,0.277,149961.0,0.0,idle
2026-02-19T15:16:07.227093,0.013,0.012,1.03,0.159,-0.047,-0.222,1.03,0.277,149961.0,0.0,idle
2026-02-19T15:16:07.228293,0.011,0.013,1.029,0.159,-0.047,-0.222,1.029,0.277,150322.0,0.0,idle
2026-02-19T15:16:07.249956,0.011,0.013,1.029,0.159,-0.047,-0.222,1.029,0.277,150322.0,0.0,idle
2026-02-19T15:16:07.280525,0.011,0.013,1.029,0.159,-0.047,-0.222,1.029,0.277,150322.0,0.0,idle
2026-02-19T15:16:07.310994,0.011,0.013,1.029,0.159,-0.047,-0.222,1.029,0.277,150322.0,0.0,idle
2026-02-19T15:16:07.365969,0.011,0.013,1.029,0.159,-0.047,-0.222,1.029,0.277,150322.0,0.0,idle
2026-02-19T15:16:07.418512,0.011,0.013,1.029,0.159,-0.047,-0.222,1.029,0.277,150322.0,0.0,idle
2026-02-19T15:16:07.437634,0.011,0.013,1.029,0.159,-0.047,-0.222,1.029,0.277,150322.0,0.0,idle
2026-02-19T15:16:07.463745,0.011,0.013,1.029,0.159,-0.047,-0.222,1.029,0.277,150322.0,0.0,idle
2026-02-19T15:16:07.495175,0.011,0.013,1.029,0.159,-0.047,-0.222,1.029,0.277,150322.0,0.0,idle
2026-02-19T15:16:07.529482,0.011,0.013,1.029,0.159,-0.047,-0.222,1.029,0.277,150322.0,0.0,idle
2026-02-19T15:16:07.557709,0.011,0.012,1.03,0.229,0.023,-0.292,1.03,0.371,150652.0,0.0,idle
2026-02-19T15:16:07.581275,0.011,0.012,1.03,0.229,0.023,-0.292,1.03,0.371,150652.0,0.0,idle
2026-02-19T15:16:07.612205,0.011,0.012,1.03,0.229,0.023,-0.292,1.03,0.371,150652.0,0.0,idle
2026-02-19T15:16:07.642780,0.011,0.012,1.03,0.229,0.023,-0.292,1.03,0.371,150652.0,0.0,idle
2026-02-19T15:16:07.673746,0.011,0.012,1.03,0.229,0.023,-0.292,1.03,0.371,150652.0,0.0,idle
2026-02-19T15:16:07.702972,0.011,0.012,1.03,0.229,0.023,-0.292,1.03,0.371,150652.0,0.0,idle
2026-02-19T15:16:07.734025,0.011,0.012,1.03,0.229,0.023,-0.292,1.03,0.371,150652.0,0.0,idle
2026-02-19T15:16:07.765321,0.011,0.012,1.03,0.229,0.023,-0.292,1.03,0.371,150652.0,0.0,idle
2026-02-19T15:16:07.796116,0.011,0.012,1.03,0.229,0.023,-0.292,1.03,0.371,150652.0,0.0,idle
2026-02-19T15:16:07.827613,0.011,0.012,1.03,0.229,0.023,-0.292,1.03,0.371,150652.0,0.0,idle
2026-02-19T15:16:07.859186,0.011,0.012,1.03,0.229,0.023,-0.292,1.03,0.371,150652.0,0.0,idle
2026-02-19T15:16:07.883359,0.011,0.012,1.03,0.229,0.023,-0.292,1.03,0.371,150652.0,0.0,idle
2026-02-19T15:16:07.887756,0.013,0.01,1.024,0.369,0.023,-0.292,1.024,0.471,150982.0,0.0,idle
2026-02-19T15:16:07.914840,0.013,0.01,1.024,0.369,0.023,-0.292,1.024,0.471,150982.0,0.0,idle
2026-02-19T15:16:07.946209,0.013,0.01,1.024,0.369,0.023,-0.292,1.024,0.471,150982.0,0.0,idle
2026-02-19T15:16:07.979706,0.013,0.01,1.024,0.369,0.023,-0.292,1.024,0.471,150982.0,0.0,idle
2026-02-19T15:16:08.010834,0.013,0.01,1.024,0.369,0.023,-0.292,1.024,0.471,150982.0,0.0,idle
2026-02-19T15:16:08.033896,0.013,0.01,1.024,0.369,0.023,-0.292,1.024,0.471,150982.0,0.0,idle
2026-02-19T15:16:08.065092,0.013,0.01,1.024,0.369,0.023,-0.292,1.024,0.471,150982.0,0.0,idle
2026-02-19T15:16:08.096384,0.013,0.01,1.024,0.369,0.023,-0.292,1.024,0.471,150982.0,0.0,idle
2026-02-19T15:16:08.126728,0.013,0.01,1.024,0.369,0.023,-0.292,1.024,0.471,150982.0,0.0,idle
2026-02-19T15:16:08.156714,0.013,0.01,1.024,0.369,0.023,-0.292,1.024,0.471,150982.0,0.0,idle
2026-02-19T15:16:08.188365,0.013,0.01,1.024,0.369,0.023,-0.292,1.024,0.471,150982.0,0.0,idle
2026-02-19T15:16:08.215615,0.013,0.01,1.024,0.369,0.023,-0.292,1.024,0.471,150982.0,0.0,idle
2026-02-19T15:16:08.246050,0.012,0.012,1.029,0.229,-0.047,-0.292,1.029,0.374,151312.0,0.0,idle
2026-02-19T15:16:08.277030,0.012,0.012,1.029,0.229,-0.047,-0.292,1.029,0.374,151312.0,0.0,idle
2026-02-19T15:16:08.308205,0.012,0.012,1.029,0.229,-0.047,-0.292,1.029,0.374,151312.0,0.0,idle
2026-02-19T15:16:08.331512,0.012,0.012,1.029,0.229,-0.047,-0.292,1.029,0.374,151312.0,0.0,idle
2026-02-19T15:16:08.360800,0.012,0.012,1.029,0.229,-0.047,-0.292,1.029,0.374,151312.0,0.0,idle
2026-02-19T15:16:08.368632,0.012,0.012,1.029,0.229,-0.047,-0.292,1.029,0.374,151312.0,0.0,idle
2026-02-19T15:16:08.399236,0.012,0.012,1.029,0.229,-0.047,-0.292,1.029,0.374,151312.0,0.0,idle
2026-02-19T15:16:08.421748,0.012,0.012,1.029,0.229,-0.047,-0.292,1.029,0.374,151312.0,0.0,idle
2026-02-19T15:16:08.452378,0.012,0.012,1.029,0.229,-0.047,-0.292,1.029,0.374,151312.0,0.0,idle
2026-02-19T15:16:08.483317,0.012,0.012,1.029,0.229,-0.047,-0.292,1.029,0.374,151312.0,0.0,idle
2026-02-19T15:16:08.514064,0.012,0.012,1.029,0.229,-0.047,-0.292,1.029,0.374,151312.0,0.0,idle
2026-02-19T15:16:08.548557,0.012,0.011,1.028,0.299,-0.047,-0.292,1.028,0.42,151642.0,0.0,idle
2026-02-19T15:16:08.581058,0.012,0.011,1.028,0.299,-0.047,-0.292,1.028,0.42,151642.0,0.0,idle
2026-02-19T15:16:08.611982,0.012,0.011,1.028,0.299,-0.047,-0.292,1.028,0.42,151642.0,0.0,idle
2026-02-19T15:16:08.643433,0.012,0.011,1.028,0.299,-0.047,-0.292,1.028,0.42,151642.0,0.0,idle
2026-02-19T15:16:08.674710,0.012,0.011,1.028,0.299,-0.047,-0.292,1.028,0.42,151642.0,0.0,idle
2026-02-19T15:16:08.698718,0.012,0.011,1.028,0.299,-0.047,-0.292,1.028,0.42,151642.0,0.0,idle
2026-02-19T15:16:08.735475,0.012,0.011,1.028,0.299,-0.047,-0.292,1.028,0.42,151642.0,0.0,idle
2026-02-19T15:16:08.757875,0.012,0.011,1.028,0.299,-0.047,-0.292,1.028,0.42,151642.0,0.0,idle
2026-02-19T15:16:08.783064,0.012,0.011,1.028,0.299,-0.047,-0.292,1.028,0.42,151642.0,0.0,idle
2026-02-19T15:16:08.814628,0.012,0.011,1.028,0.299,-0.047,-0.292,1.028,0.42,151642.0,0.0,idle
2026-02-19T15:16:08.854327,0.012,0.011,1.028,0.299,-0.047,-0.292,1.028,0.42,151642.0,0.0,idle
2026-02-19T15:16:08.877586,0.013,0.012,1.031,0.229,-0.047,-0.222,1.031,0.322,151972.0,0.0,idle
2026-02-19T15:16:08.906254,0.013,0.012,1.031,0.229,-0.047,-0.222,1.031,0.322,151972.0,0.0,idle
2026-02-19T15:16:08.937516,0.013,0.012,1.031,0.229,-0.047,-0.222,1.031,0.322,151972.0,0.0,idle
2026-02-19T15:16:08.968173,0.013,0.012,1.031,0.229,-0.047,-0.222,1.031,0.322,151972.0,0.0,idle
2026-02-19T15:16:08.999713,0.013,0.012,1.031,0.229,-0.047,-0.222,1.031,0.322,151972.0,0.0,idle
2026-02-19T15:16:09.027498,0.013,0.012,1.031,0.229,-0.047,-0.222,1.031,0.322,151972.0,0.0,idle
2026-02-19T15:16:09.063977,0.013,0.012,1.031,0.229,-0.047,-0.222,1.031,0.322,151972.0,0.0,idle
2026-02-19T15:17:12.023640,0,0,0,0,0,0,0,0,0,0,idle
2026-02-19T15:17:12.048842,0,0,0,0,0,0,0,0,0,0,idle
2026-02-19T15:17:12.058527,0,0,0,0,0,0,0,0,0,0,idle
2026-02-19T15:17:12.088607,0,0,0,0,0,0,0,0,0,0,idle
2026-02-19T15:17:12.119586,0,0,0,0,0,0,0,0,0,0,idle
2026-02-19T15:17:12.150871,0,0,0,0,0,0,0,0,0,0,idle
2026-02-19T15:17:12.181222,0,0,0,0,0,0,0,0,0,0,idle
2026-02-19T15:17:12.204635,0,0,0,0,0,0,0,0,0,0,idle
2026-02-19T15:17:12.236511,0,0,0,0,0,0,0,0,0,0,idle
2026-02-19T15:17:12.267368,0,0,0,0,0,0,0,0,0,0,idle
2026-02-19T15:17:12.298191,0,0,0,0,0,0,0,0,0,0,idle
2026-02-19T15:17:12.326986,0,0,0,0,0,0,0,0,0,0,idle
2026-02-19T15:17:12.350724,0,0,0,0,0,0,0,0,0,0,idle
2026-02-19T15:17:12.381647,0,0,0,0,0,0,0,0,0,0,idle
2026-02-19T15:17:12.387776,0,0,0,0,0,0,0,0,0,0,idle
2026-02-19T15:17:12.412632,0,0,0,0,0,0,0,0,0,0,idle
2026-02-19T15:17:12.442918,0,0,0,0,0,0,0,0,0,0,idle
2026-02-19T15:17:12.473771,0,0,0,0,0,0,0,0,0,0,idle
2026-02-19T15:17:12.505015,0,0,0,0,0,0,0,0,0,0,idle
2026-02-19T15:17:12.535532,0,0,0,0,0,0,0,0,0,0,idle
2026-02-19T15:17:12.568996,0,0,0,0,0,0,0,0,0,0,idle
2026-02-19T15:17:12.596726,0,0,0,0,0,0,0,0,0,0,idle
2026-02-19T15:17:12.631627,0,0,0,0,0,0,0,0,0,0,idle
2026-02-19T15:17:12.657035,0,0,0,0,0,0,0,0,0,0,idle
2026-02-19T15:17:12.684873,0,0,0,0,0,0,0,0,0,0,idle
2026-02-19T15:17:12.715807,0,0,0,0,0,0,0,0,0,0,idle
2026-02-19T15:17:12.752129,0,0,0,0,0,0,0,0,0,0,idle
2026-02-19T15:17:12.777242,0.007,0.008,1.027,-0.541,-0.047,-0.292,1.027,0.616,215814.0,0.0,idle
2026-02-19T15:17:12.817604,0.007,0.008,1.027,-0.541,-0.047,-0.292,1.027,0.616,215814.0,0.0,idle
2026-02-19T15:17:12.848017,0.007,0.008,1.027,-0.541,-0.047,-0.292,1.027,0.616,215814.0,0.0,idle
2026-02-19T15:17:12.879932,0.007,0.008,1.027,-0.541,-0.047,-0.292,1.027,0.616,215814.0,0.0,idle
2026-02-19T15:17:12.910542,0.007,0.008,1.027,-0.541,-0.047,-0.292,1.027,0.616,215814.0,0.0,idle
2026-02-19T15:17:12.927654,0.007,0.008,1.027,-0.541,-0.047,-0.292,1.027,0.616,215814.0,0.0,idle
2026-02-19T15:17:12.952813,0.007,0.008,1.027,-0.541,-0.047,-0.292,1.027,0.616,215814.0,0.0,idle
2026-02-19T15:17:12.995205,0.007,0.008,1.027,-0.541,-0.047,-0.292,1.027,0.616,215814.0,0.0,idle
2026-02-19T15:17:13.047173,0.007,0.008,1.027,-0.541,-0.047,-0.292,1.027,0.616,215814.0,0.0,idle
2026-02-19T15:17:13.082732,0.007,0.008,1.027,-0.541,-0.047,-0.292,1.027,0.616,215814.0,0.0,idle
2026-02-19T15:17:13.106968,0.011,0.012,1.032,0.019,-0.117,-0.152,1.032,0.193,216205.0,0.0,idle
2026-02-19T15:17:13.130917,0.011,0.012,1.032,0.019,-0.117,-0.152,1.032,0.193,216205.0,0.0,idle
2026-02-19T15:17:13.161824,0.011,0.012,1.032,0.019,-0.117,-0.152,1.032,0.193,216205.0,0.0,idle
2026-02-19T15:17:13.193154,0.011,0.012,1.032,0.019,-0.117,-0.152,1.032,0.193,216205.0,0.0,idle
2026-02-19T15:17:13.223622,0.011,0.012,1.032,0.019,-0.117,-0.152,1.032,0.193,216205.0,0.0,idle
2026-02-19T15:17:13.254984,0.011,0.012,1.032,0.019,-0.117,-0.152,1.032,0.193,216205.0,0.0,idle
2026-02-19T15:17:13.286769,0.011,0.012,1.032,0.019,-0.117,-0.152,1.032,0.193,216205.0,0.0,idle
2026-02-19T15:17:13.317212,0.011,0.012,1.032,0.019,-0.117,-0.152,1.032,0.193,216205.0,0.0,idle
2026-02-19T15:17:13.348399,0.011,0.012,1.032,0.019,-0.117,-0.152,1.032,0.193,216205.0,0.0,idle
2026-02-19T15:17:13.379376,0.011,0.012,1.032,0.019,-0.117,-0.152,1.032,0.193,216205.0,0.0,idle
2026-02-19T15:17:13.406650,0.011,0.012,1.032,0.019,-0.117,-0.152,1.032,0.193,216205.0,0.0,idle
2026-02-19T15:17:13.442347,0.011,0.012,1.032,0.019,-0.117,-0.152,1.032,0.193,216205.0,0.0,idle
2026-02-19T15:17:13.468241,0.01,0.008,1.029,0.159,-0.117,-0.222,1.029,0.297,216535.0,0.0,idle
2026-02-19T15:17:13.502445,0.01,0.008,1.029,0.159,-0.117,-0.222,1.029,0.297,216535.0,0.0,idle
2026-02-19T15:17:13.529652,0.01,0.008,1.029,0.159,-0.117,-0.222,1.029,0.297,216535.0,0.0,idle
2026-02-19T15:17:13.559431,0.01,0.008,1.029,0.159,-0.117,-0.222,1.029,0.297,216535.0,0.0,idle
2026-02-19T15:17:13.590717,0.01,0.008,1.029,0.159,-0.117,-0.222,1.029,0.297,216535.0,0.0,idle
2026-02-19T15:17:13.618502,0.01,0.008,1.029,0.159,-0.117,-0.222,1.029,0.297,216535.0,0.0,idle
2026-02-19T15:17:13.652357,0.01,0.008,1.029,0.159,-0.117,-0.222,1.029,0.297,216535.0,0.0,idle
2026-02-19T15:17:13.677754,0.01,0.008,1.029,0.159,-0.117,-0.222,1.029,0.297,216535.0,0.0,idle
2026-02-19T15:17:13.699075,0.01,0.008,1.029,0.159,-0.117,-0.222,1.029,0.297,216535.0,0.0,idle
2026-02-19T15:17:13.730051,0.01,0.008,1.029,0.159,-0.117,-0.222,1.029,0.297,216535.0,0.0,idle
2026-02-19T15:17:13.767472,0.01,0.008,1.029,0.159,-0.117,-0.222,1.029,0.297,216535.0,0.0,idle
2026-02-19T15:17:13.793091,0.013,0.011,1.032,0.089,-0.047,-0.222,1.032,0.243,216894.0,0.0,idle
2026-02-19T15:17:13.829651,0.013,0.011,1.032,0.089,-0.047,-0.222,1.032,0.243,216894.0,0.0,idle
2026-02-19T15:17:13.861050,0.013,0.011,1.032,0.089,-0.047,-0.222,1.032,0.243,216894.0,0.0,idle
2026-02-19T15:17:13.892433,0.013,0.011,1.032,0.089,-0.047,-0.222,1.032,0.243,216894.0,0.0,idle
2026-02-19T15:17:13.923646,0.013,0.011,1.032,0.089,-0.047,-0.222,1.032,0.243,216894.0,0.0,idle
2026-02-19T15:17:13.946806,0.013,0.011,1.032,0.089,-0.047,-0.222,1.032,0.243,216894.0,0.0,idle
2026-02-19T15:17:13.969758,0.013,0.011,1.032,0.089,-0.047,-0.222,1.032,0.243,216894.0,0.0,idle
2026-02-19T15:17:14.001877,0.013,0.011,1.032,0.089,-0.047,-0.222,1.032,0.243,216894.0,0.0,idle
2026-02-19T15:17:14.034015,0.013,0.011,1.032,0.089,-0.047,-0.222,1.032,0.243,216894.0,0.0,idle
2026-02-19T15:17:14.068206,0.013,0.011,1.032,0.089,-0.047,-0.222,1.032,0.243,216894.0,0.0,idle
2026-02-19T15:17:14.101497,0.013,0.011,1.032,0.089,-0.047,-0.222,1.032,0.243,216894.0,0.0,idle
2026-02-19T15:17:14.128590,0.012,0.008,1.03,0.229,-0.117,-0.292,1.03,0.389,217224.0,0.0,idle
2026-02-19T15:17:14.150072,0.012,0.008,1.03,0.229,-0.117,-0.292,1.03,0.389,217224.0,0.0,idle
2026-02-19T15:17:14.182259,0.012,0.008,1.03,0.229,-0.117,-0.292,1.03,0.389,217224.0,0.0,idle
2026-02-19T15:17:14.213394,0.012,0.008,1.03,0.229,-0.117,-0.292,1.03,0.389,217224.0,0.0,idle
2026-02-19T15:17:14.244184,0.012,0.008,1.03,0.229,-0.117,-0.292,1.03,0.389,217224.0,0.0,idle
2026-02-19T15:17:14.265872,0.012,0.008,1.03,0.229,-0.117,-0.292,1.03,0.389,217224.0,0.0,idle
2026-02-19T15:17:14.278049,0.012,0.008,1.03,0.229,-0.117,-0.292,1.03,0.389,217224.0,0.0,idle
2026-02-19T15:17:14.304448,0.012,0.008,1.03,0.229,-0.117,-0.292,1.03,0.389,217224.0,0.0,idle
2026-02-19T15:17:14.335154,0.012,0.008,1.03,0.229,-0.117,-0.292,1.03,0.389,217224.0,0.0,idle
2026-02-19T15:17:14.368212,0.012,0.008,1.03,0.229,-0.117,-0.292,1.03,0.389,217224.0,0.0,idle
2026-02-19T15:17:14.392883,0.012,0.008,1.03,0.229,-0.117,-0.292,1.03,0.389,217224.0,0.0,idle
2026-02-19T15:17:14.415513,0.012,0.008,1.03,0.229,-0.117,-0.292,1.03,0.389,217224.0,0.0,idle
2026-02-19T15:17:14.446813,0.012,0.008,1.03,0.229,-0.117,-0.292,1.03,0.389,217224.0,0.0,idle
2026-02-19T15:17:14.480332,0.013,0.012,1.031,0.299,-0.117,-0.292,1.031,0.434,217554.0,0.0,idle
2026-02-19T15:17:14.511038,0.013,0.012,1.031,0.299,-0.117,-0.292,1.031,0.434,217554.0,0.0,idle
2026-02-19T15:17:14.542023,0.013,0.012,1.031,0.299,-0.117,-0.292,1.031,0.434,217554.0,0.0,idle
2026-02-19T15:17:14.573161,0.013,0.012,1.031,0.299,-0.117,-0.292,1.031,0.434,217554.0,0.0,idle
2026-02-19T15:17:14.601250,0.013,0.012,1.031,0.299,-0.117,-0.292,1.031,0.434,217554.0,0.0,idle
2026-02-19T15:17:14.604937,0.013,0.012,1.031,0.299,-0.117,-0.292,1.031,0.434,217554.0,0.0,idle
2026-02-19T15:17:14.635459,0.013,0.012,1.031,0.299,-0.117,-0.292,1.031,0.434,217554.0,0.0,idle
2026-02-19T15:17:14.666774,0.013,0.012,1.031,0.299,-0.117,-0.292,1.031,0.434,217554.0,0.0,idle
2026-02-19T15:17:14.699222,0.013,0.012,1.031,0.299,-0.117,-0.292,1.031,0.434,217554.0,0.0,idle
2026-02-19T15:17:14.725268,0.013,0.012,1.031,0.299,-0.117,-0.292,1.031,0.434,217554.0,0.0,idle
2026-02-19T15:17:14.761083,0.013,0.012,1.031,0.299,-0.117,-0.292,1.031,0.434,217554.0,0.0,idle
2026-02-19T15:17:14.783542,0.013,0.012,1.031,0.299,-0.117,-0.292,1.031,0.434,217554.0,0.0,idle
2026-02-19T15:17:14.814726,0.014,0.008,1.025,0.299,-0.047,-0.292,1.025,0.42,217884.0,0.0,idle
2026-02-19T15:17:14.845585,0.014,0.008,1.025,0.299,-0.047,-0.292,1.025,0.42,217884.0,0.0,idle
2026-02-19T15:17:14.876674,0.014,0.008,1.025,0.299,-0.047,-0.292,1.025,0.42,217884.0,0.0,idle
2026-02-19T15:17:14.907425,0.014,0.008,1.025,0.299,-0.047,-0.292,1.025,0.42,217884.0,0.0,idle
2026-02-19T15:17:14.934939,0.014,0.008,1.025,0.299,-0.047,-0.292,1.025,0.42,217884.0,0.0,idle
2026-02-19T15:17:14.967177,0.014,0.008,1.025,0.299,-0.047,-0.292,1.025,0.42,217884.0,0.0,idle
2026-02-19T15:17:14.996700,0.014,0.008,1.025,0.299,-0.047,-0.292,1.025,0.42,217884.0,0.0,idle
2026-02-19T15:17:15.022122,0.014,0.008,1.025,0.299,-0.047,-0.292,1.025,0.42,217884.0,0.0,idle
2026-02-19T15:17:15.053172,0.014,0.008,1.025,0.299,-0.047,-0.292,1.025,0.42,217884.0,0.0,idle
2026-02-19T15:17:15.056964,0.014,0.008,1.025,0.299,-0.047,-0.292,1.025,0.42,217884.0,0.0,idle
2026-02-19T15:17:15.087318,0.014,0.008,1.025,0.299,-0.047,-0.292,1.025,0.42,217884.0,0.0,idle
2026-02-19T15:17:15.117456,0.013,0.011,1.03,0.089,-0.047,-0.152,1.03,0.182,218214.0,0.0,idle
2026-02-19T15:17:15.152395,0.013,0.011,1.03,0.089,-0.047,-0.152,1.03,0.182,218214.0,0.0,idle
2026-02-19T15:17:15.182995,0.013,0.011,1.03,0.089,-0.047,-0.152,1.03,0.182,218214.0,0.0,idle
2026-02-19T15:17:15.213109,0.013,0.011,1.03,0.089,-0.047,-0.152,1.03,0.182,218214.0,0.0,idle
2026-02-19T15:17:15.244552,0.013,0.011,1.03,0.089,-0.047,-0.152,1.03,0.182,218214.0,0.0,idle
2026-02-19T15:17:15.268556,0.013,0.011,1.03,0.089,-0.047,-0.152,1.03,0.182,218214.0,0.0,idle
2026-02-19T15:17:15.303666,0.013,0.011,1.03,0.089,-0.047,-0.152,1.03,0.182,218214.0,0.0,idle
2026-02-19T15:17:15.327466,0.013,0.011,1.03,0.089,-0.047,-0.152,1.03,0.182,218214.0,0.0,idle
2026-02-19T15:17:15.353112,0.013,0.011,1.03,0.089,-0.047,-0.152,1.03,0.182,218214.0,0.0,idle
2026-02-19T15:17:15.383458,0.013,0.011,1.03,0.089,-0.047,-0.152,1.03,0.182,218214.0,0.0,idle
2026-02-19T15:17:15.414140,0.013,0.011,1.03,0.089,-0.047,-0.152,1.03,0.182,218214.0,0.0,idle
2026-02-19T15:17:15.445542,0.013,0.011,1.03,0.089,-0.047,-0.152,1.03,0.182,218214.0,0.0,idle
2026-02-19T15:17:15.447458,0.013,0.013,1.031,0.229,-0.047,-0.292,1.031,0.374,218544.0,0.0,idle
2026-02-19T15:17:15.483294,0.013,0.013,1.031,0.229,-0.047,-0.292,1.031,0.374,218544.0,0.0,idle
2026-02-19T15:17:15.513055,0.013,0.013,1.031,0.229,-0.047,-0.292,1.031,0.374,218544.0,0.0,idle
2026-02-19T15:17:15.544358,0.013,0.013,1.031,0.229,-0.047,-0.292,1.031,0.374,218544.0,0.0,idle
2026-02-19T15:17:15.576063,0.013,0.013,1.031,0.229,-0.047,-0.292,1.031,0.374,218544.0,0.0,idle
2026-02-19T15:17:15.598057,0.013,0.013,1.031,0.229,-0.047,-0.292,1.031,0.374,218544.0,0.0,idle
2026-02-19T15:17:15.632895,0.013,0.013,1.031,0.229,-0.047,-0.292,1.031,0.374,218544.0,0.0,idle
2026-02-19T15:17:15.657668,0.013,0.013,1.031,0.229,-0.047,-0.292,1.031,0.374,218544.0,0.0,idle
2026-02-19T15:17:15.692940,0.013,0.013,1.031,0.229,-0.047,-0.292,1.031,0.374,218544.0,0.0,idle
2026-02-19T15:17:15.720615,0.013,0.013,1.031,0.229,-0.047,-0.292,1.031,0.374,218544.0,0.0,idle
2026-02-19T15:17:15.750306,0.013,0.013,1.031,0.229,-0.047,-0.292,1.031,0.374,218544.0,0.0,idle
2026-02-19T15:17:15.776319,0.013,0.013,1.031,0.229,-0.047,-0.292,1.031,0.374,218544.0,0.0,idle
2026-02-19T15:17:15.806695,0.015,0.01,1.033,0.159,-0.047,-0.292,1.033,0.335,218875.0,0.0,idle
2026-02-19T15:17:15.838053,0.015,0.01,1.033,0.159,-0.047,-0.292,1.033,0.335,218875.0,0.0,idle
2026-02-19T15:17:15.868027,0.015,0.01,1.033,0.159,-0.047,-0.292,1.033,0.335,218875.0,0.0,idle
2026-02-19T15:17:15.899070,0.015,0.01,1.033,0.159,-0.047,-0.292,1.033,0.335,218875.0,0.0,idle
2026-02-19T15:17:15.927830,0.015,0.01,1.033,0.159,-0.047,-0.292,1.033,0.335,218875.0,0.0,idle
2026-02-19T15:17:15.960531,0.015,0.01,1.033,0.159,-0.047,-0.292,1.033,0.335,218875.0,0.0,idle
2026-02-19T15:17:15.987447,0.015,0.01,1.033,0.159,-0.047,-0.292,1.033,0.335,218875.0,0.0,idle
2026-02-19T15:17:16.021557,0.015,0.01,1.033,0.159,-0.047,-0.292,1.033,0.335,218875.0,0.0,idle
2026-02-19T15:17:16.047328,0.015,0.01,1.033,0.159,-0.047,-0.292,1.033,0.335,218875.0,0.0,idle
2026-02-19T15:17:16.071149,0.015,0.01,1.033,0.159,-0.047,-0.292,1.033,0.335,218875.0,0.0,idle
2026-02-19T15:17:16.107083,0.015,0.01,1.033,0.159,-0.047,-0.292,1.033,0.335,218875.0,0.0,idle
2026-02-19T15:17:16.139799,0.015,0.01,1.033,0.159,-0.047,-0.292,1.033,0.335,218875.0,0.0,idle
2026-02-19T15:17:16.168060,0.015,0.01,1.033,0.159,-0.047,-0.292,1.033,0.335,218875.0,0.0,idle
2026-02-19T15:17:16.201250,0.011,0.011,1.028,-0.121,-0.047,-0.292,1.028,0.319,219205.0,0.0,idle
2026-02-19T15:17:16.233815,0.011,0.011,1.028,-0.121,-0.047,-0.292,1.028,0.319,219205.0,0.0,idle
2026-02-19T15:17:16.267962,0.011,0.011,1.028,-0.121,-0.047,-0.292,1.028,0.319,219205.0,0.0,idle
2026-02-19T15:17:16.299863,0.011,0.011,1.028,-0.121,-0.047,-0.292,1.028,0.319,219205.0,0.0,idle
2026-02-19T15:17:16.321454,0.011,0.011,1.028,-0.121,-0.047,-0.292,1.028,0.319,219205.0,0.0,idle
2026-02-19T15:17:16.346168,0.011,0.011,1.028,-0.121,-0.047,-0.292,1.028,0.319,219205.0,0.0,idle
2026-02-19T15:17:16.377678,0.011,0.011,1.028,-0.121,-0.047,-0.292,1.028,0.319,219205.0,0.0,idle
2026-02-19T15:17:16.402239,0.011,0.011,1.028,-0.121,-0.047,-0.292,1.028,0.319,219205.0,0.0,idle
2026-02-19T15:17:16.433497,0.011,0.011,1.028,-0.121,-0.047,-0.292,1.028,0.319,219205.0,0.0,idle
2026-02-19T15:17:16.467734,0.011,0.011,1.028,-0.121,-0.047,-0.292,1.028,0.319,219205.0,0.0,idle
2026-02-19T15:17:16.498275,0.013,0.01,1.03,0.229,-0.117,-0.152,1.03,0.299,219594.0,0.0,idle
2026-02-19T15:17:16.519807,0.013,0.01,1.03,0.229,-0.117,-0.152,1.03,0.299,219594.0,0.0,idle
2026-02-19T15:17:16.551503,0.013,0.01,1.03,0.229,-0.117,-0.152,1.03,0.299,219594.0,0.0,idle
2026-02-19T15:17:16.585256,0.013,0.01,1.03,0.229,-0.117,-0.152,1.03,0.299,219594.0,0.0,idle
2026-02-19T15:17:16.617419,0.013,0.01,1.03,0.229,-0.117,-0.152,1.03,0.299,219594.0,0.0,idle
2026-02-19T15:17:16.647099,0.013,0.01,1.03,0.229,-0.117,-0.152,1.03,0.299,219594.0,0.0,idle
2026-02-19T15:17:16.670471,0.013,0.01,1.03,0.229,-0.117,-0.152,1.03,0.299,219594.0,0.0,idle
2026-02-19T15:17:16.701500,0.013,0.01,1.03,0.229,-0.117,-0.152,1.03,0.299,219594.0,0.0,idle
2026-02-19T15:17:16.735156,0.013,0.01,1.03,0.229,-0.117,-0.152,1.03,0.299,219594.0,0.0,idle
2026-02-19T15:17:16.768889,0.013,0.01,1.03,0.229,-0.117,-0.152,1.03,0.299,219594.0,0.0,idle
2026-02-19T15:17:16.802911,0.013,0.01,1.03,0.229,-0.117,-0.152,1.03,0.299,219594.0,0.0,idle
2026-02-19T15:17:16.826621,0.01,0.013,1.031,0.229,-0.047,-0.152,1.031,0.279,219924.0,0.0,idle
2026-02-19T15:17:16.855226,0.01,0.013,1.031,0.229,-0.047,-0.152,1.031,0.279,219924.0,0.0,idle
2026-02-19T15:17:16.886574,0.01,0.013,1.031,0.229,-0.047,-0.152,1.031,0.279,219924.0,0.0,idle
2026-02-19T15:17:16.917863,0.01,0.013,1.031,0.229,-0.047,-0.152,1.031,0.279,219924.0,0.0,idle
2026-02-19T15:17:16.948318,0.01,0.013,1.031,0.229,-0.047,-0.152,1.031,0.279,219924.0,0.0,idle
2026-02-19T15:17:16.978151,0.01,0.013,1.031,0.229,-0.047,-0.152,1.031,0.279,219924.0,0.0,idle
2026-02-19T15:17:17.004350,0.01,0.013,1.031,0.229,-0.047,-0.152,1.031,0.279,219924.0,0.0,idle
2026-02-19T15:17:17.036031,0.01,0.013,1.031,0.229,-0.047,-0.152,1.031,0.279,219924.0,0.0,idle
2026-02-19T15:17:17.069140,0.01,0.013,1.031,0.229,-0.047,-0.152,1.031,0.279,219924.0,0.0,idle
2026-02-19T15:17:17.095515,0.01,0.013,1.031,0.229,-0.047,-0.152,1.031,0.279,219924.0,0.0,idle
2026-02-19T15:17:17.118658,0.01,0.013,1.031,0.229,-0.047,-0.152,1.031,0.279,219924.0,0.0,idle
2026-02-19T15:17:17.149037,0.01,0.013,1.031,0.229,-0.047,-0.152,1.031,0.279,219924.0,0.0,idle
2026-02-19T15:17:17.184924,0.014,0.01,1.032,0.089,-0.117,-0.292,1.032,0.327,220254.0,0.0,idle
2026-02-19T15:17:17.216641,0.014,0.01,1.032,0.089,-0.117,-0.292,1.032,0.327,220254.0,0.0,idle
2026-02-19T15:17:17.249334,0.014,0.01,1.032,0.089,-0.117,-0.292,1.032,0.327,220254.0,0.0,idle
2026-02-19T15:17:17.279339,0.014,0.01,1.032,0.089,-0.117,-0.292,1.032,0.327,220254.0,0.0,idle
2026-02-19T15:17:17.319397,0.014,0.01,1.032,0.089,-0.117,-0.292,1.032,0.327,220254.0,0.0,idle
2026-02-19T15:17:17.363188,0.014,0.01,1.032,0.089,-0.117,-0.292,1.032,0.327,220254.0,0.0,idle
2026-02-19T15:17:17.369220,0.014,0.01,1.032,0.089,-0.117,-0.292,1.032,0.327,220254.0,0.0,idle
2026-02-19T15:17:17.393242,0.014,0.01,1.032,0.089,-0.117,-0.292,1.032,0.327,220254.0,0.0,idle
2026-02-19T15:17:17.425313,0.014,0.01,1.032,0.089,-0.117,-0.292,1.032,0.327,220254.0,0.0,idle
2026-02-19T15:17:17.455779,0.014,0.01,1.032,0.089,-0.117,-0.292,1.032,0.327,220254.0,0.0,idle
2026-02-19T15:17:17.487788,0.014,0.01,1.032,0.089,-0.117,-0.292,1.032,0.327,220254.0,0.0,idle
2026-02-19T15:17:17.517511,0.012,0.009,1.029,0.089,-0.047,-0.222,1.029,0.243,220584.0,0.0,idle
2026-02-19T15:17:17.547815,0.012,0.009,1.029,0.089,-0.047,-0.222,1.029,0.243,220584.0,0.0,idle
2026-02-19T15:17:17.577919,0.012,0.009,1.029,0.089,-0.047,-0.222,1.029,0.243,220584.0,0.0,idle
2026-02-19T15:17:17.609206,0.012,0.009,1.029,0.089,-0.047,-0.222,1.029,0.243,220584.0,0.0,idle
2026-02-19T15:17:17.632958,0.012,0.009,1.029,0.089,-0.047,-0.222,1.029,0.243,220584.0,0.0,idle
2026-02-19T15:17:17.640721,0.012,0.009,1.029,0.089,-0.047,-0.222,1.029,0.243,220584.0,0.0,idle
2026-02-19T15:17:17.670818,0.012,0.009,1.029,0.089,-0.047,-0.222,1.029,0.243,220584.0,0.0,idle
2026-02-19T15:17:17.697643,0.012,0.009,1.029,0.089,-0.047,-0.222,1.029,0.243,220584.0,0.0,idle
2026-02-19T15:17:17.722062,0.012,0.009,1.029,0.089,-0.047,-0.222,1.029,0.243,220584.0,0.0,idle
2026-02-19T15:17:17.758633,0.012,0.009,1.029,0.089,-0.047,-0.222,1.029,0.243,220584.0,0.0,idle
2026-02-19T15:17:17.785316,0.012,0.009,1.029,0.089,-0.047,-0.222,1.029,0.243,220584.0,0.0,idle
2026-02-19T15:17:17.847617,0.013,0.012,1.03,0.159,-0.047,-0.292,1.03,0.335,220915.0,0.0,idle
2026-02-19T15:17:17.922265,0.013,0.012,1.03,0.159,-0.047,-0.292,1.03,0.335,220915.0,0.0,idle
2026-02-19T15:17:17.947348,0.013,0.012,1.03,0.159,-0.047,-0.292,1.03,0.335,220915.0,0.0,idle
2026-02-19T15:17:17.968553,0.013,0.012,1.03,0.159,-0.047,-0.292,1.03,0.335,220915.0,0.0,idle
2026-02-19T15:17:17.993300,0.013,0.012,1.03,0.159,-0.047,-0.292,1.03,0.335,220915.0,0.0,idle
2026-02-19T15:17:18.024580,0.013,0.012,1.03,0.159,-0.047,-0.292,1.03,0.335,220915.0,0.0,idle
2026-02-19T15:17:18.053231,0.013,0.012,1.03,0.159,-0.047,-0.292,1.03,0.335,220915.0,0.0,idle
2026-02-19T15:17:18.087220,0.013,0.012,1.03,0.159,-0.047,-0.292,1.03,0.335,220915.0,0.0,idle
2026-02-19T15:17:18.088386,0.013,0.012,1.03,0.159,-0.047,-0.292,1.03,0.335,220915.0,0.0,idle
2026-02-19T15:17:18.118139,0.013,0.012,1.03,0.159,-0.047,-0.292,1.03,0.335,220915.0,0.0,idle
2026-02-19T15:17:18.146547,0.015,0.011,1.031,0.229,-0.047,-0.222,1.031,0.322,221245.0,0.0,idle
2026-02-19T15:17:18.170095,0.015,0.011,1.031,0.229,-0.047,-0.222,1.031,0.322,221245.0,0.0,idle
2026-02-19T15:17:18.195089,0.015,0.011,1.031,0.229,-0.047,-0.222,1.031,0.322,221245.0,0.0,idle
2026-02-19T15:17:18.225720,0.015,0.011,1.031,0.229,-0.047,-0.222,1.031,0.322,221245.0,0.0,idle
2026-02-19T15:17:18.249074,0.015,0.011,1.031,0.229,-0.047,-0.222,1.031,0.322,221245.0,0.0,idle
2026-02-19T15:17:18.281555,0.015,0.011,1.031,0.229,-0.047,-0.222,1.031,0.322,221245.0,0.0,idle
2026-02-19T15:17:18.297177,0.015,0.011,1.031,0.229,-0.047,-0.222,1.031,0.322,221245.0,0.0,idle
2026-02-19T15:17:18.330263,0.015,0.011,1.031,0.229,-0.047,-0.222,1.031,0.322,221245.0,0.0,idle
2026-02-19T15:17:18.356999,0.015,0.011,1.031,0.229,-0.047,-0.222,1.031,0.322,221245.0,0.0,idle
2026-02-19T15:17:18.386876,0.015,0.011,1.031,0.229,-0.047,-0.222,1.031,0.322,221245.0,0.0,idle
2026-02-19T15:17:18.418569,0.015,0.011,1.031,0.229,-0.047,-0.222,1.031,0.322,221245.0,0.0,idle
2026-02-19T15:17:18.445073,0.015,0.011,1.031,0.229,-0.047,-0.222,1.031,0.322,221245.0,0.0,idle
2026-02-19T15:17:18.475367,0.015,0.011,1.031,0.229,-0.047,-0.222,1.031,0.322,221245.0,0.0,idle
2026-02-19T15:17:18.506750,0.01,0.012,1.028,0.159,-0.047,-0.292,1.028,0.335,221575.0,0.0,idle
2026-02-19T15:17:18.537508,0.01,0.012,1.028,0.159,-0.047,-0.292,1.028,0.335,221575.0,0.0,idle
2026-02-19T15:17:18.566228,0.01,0.012,1.028,0.159,-0.047,-0.292,1.028,0.335,221575.0,0.0,idle
2026-02-19T15:17:18.598019,0.01,0.012,1.028,0.159,-0.047,-0.292,1.028,0.335,221575.0,0.0,idle
2026-02-19T15:17:18.626392,0.01,0.012,1.028,0.159,-0.047,-0.292,1.028,0.335,221575.0,0.0,idle
2026-02-19T15:17:18.664104,0.01,0.012,1.028,0.159,-0.047,-0.292,1.028,0.335,221575.0,0.0,idle
2026-02-19T15:17:18.688148,0.01,0.012,1.028,0.159,-0.047,-0.292,1.028,0.335,221575.0,0.0,idle
2026-02-19T15:17:18.710415,0.01,0.012,1.028,0.159,-0.047,-0.292,1.028,0.335,221575.0,0.0,idle
2026-02-19T15:17:18.741337,0.01,0.012,1.028,0.159,-0.047,-0.292,1.028,0.335,221575.0,0.0,idle
2026-02-19T15:17:18.747402,0.01,0.012,1.028,0.159,-0.047,-0.292,1.028,0.335,221575.0,0.0,idle
2026-02-19T15:17:18.782933,0.01,0.012,1.028,0.159,-0.047,-0.292,1.028,0.335,221575.0,0.0,idle
2026-02-19T15:17:18.806289,0.01,0.012,1.028,0.159,-0.047,-0.292,1.028,0.335,221575.0,0.0,idle
2026-02-19T15:17:18.837060,0.012,0.012,1.03,0.159,-0.117,-0.222,1.03,0.297,221905.0,0.0,idle
2026-02-19T15:17:18.864906,0.012,0.012,1.03,0.159,-0.117,-0.222,1.03,0.297,221905.0,0.0,idle
2026-02-19T15:17:18.896249,0.012,0.012,1.03,0.159,-0.117,-0.222,1.03,0.297,221905.0,0.0,idle
2026-02-19T15:17:18.926927,0.012,0.012,1.03,0.159,-0.117,-0.222,1.03,0.297,221905.0,0.0,idle
2026-02-19T15:17:18.952478,0.012,0.012,1.03,0.159,-0.117,-0.222,1.03,0.297,221905.0,0.0,idle
2026-02-19T15:17:18.983128,0.012,0.012,1.03,0.159,-0.117,-0.222,1.03,0.297,221905.0,0.0,idle
2026-02-19T15:17:19.006394,0.012,0.012,1.03,0.159,-0.117,-0.222,1.03,0.297,221905.0,0.0,idle
2026-02-19T15:17:19.018676,0.012,0.012,1.03,0.159,-0.117,-0.222,1.03,0.297,221905.0,0.0,idle
2026-02-19T15:17:19.052248,0.012,0.012,1.03,0.159,-0.117,-0.222,1.03,0.297,221905.0,0.0,idle
2026-02-19T15:17:19.077363,0.012,0.012,1.03,0.159,-0.117,-0.222,1.03,0.297,221905.0,0.0,idle
2026-02-19T15:17:19.114568,0.012,0.012,1.03,0.159,-0.117,-0.222,1.03,0.297,221905.0,0.0,idle
2026-02-19T15:17:19.137583,0.012,0.012,1.03,0.159,-0.117,-0.222,1.03,0.297,221905.0,0.0,idle
2026-02-19T15:17:19.168088,0.013,0.013,1.03,0.019,-0.117,-0.222,1.03,0.251,222235.0,0.0,idle
2026-02-19T15:17:19.200297,0.013,0.013,1.03,0.019,-0.117,-0.222,1.03,0.251,222235.0,0.0,idle
2026-02-19T15:17:19.231246,0.013,0.013,1.03,0.019,-0.117,-0.222,1.03,0.251,222235.0,0.0,idle
2026-02-19T15:17:19.265097,0.013,0.013,1.03,0.019,-0.117,-0.222,1.03,0.251,222235.0,0.0,idle
2026-02-19T15:17:19.287626,0.013,0.013,1.03,0.019,-0.117,-0.222,1.03,0.251,222235.0,0.0,idle
2026-02-19T15:17:19.324667,0.013,0.013,1.03,0.019,-0.117,-0.222,1.03,0.251,222235.0,0.0,idle
2026-02-19T15:17:19.347027,0.013,0.013,1.03,0.019,-0.117,-0.222,1.03,0.251,222235.0,0.0,idle
2026-02-19T15:17:19.369456,0.013,0.013,1.03,0.019,-0.117,-0.222,1.03,0.251,222235.0,0.0,idle
2026-02-19T15:17:19.399979,0.013,0.013,1.03,0.019,-0.117,-0.222,1.03,0.251,222235.0,0.0,idle
2026-02-19T15:17:19.431594,0.013,0.013,1.03,0.019,-0.117,-0.222,1.03,0.251,222235.0,0.0,idle
2026-02-19T15:17:19.461595,0.013,0.013,1.03,0.019,-0.117,-0.222,1.03,0.251,222235.0,0.0,idle
2026-02-19T15:17:19.497986,0.013,0.009,1.028,0.229,0.023,-0.222,1.028,0.319,222564.0,0.0,idle
2026-02-19T15:17:19.528817,0.013,0.009,1.028,0.229,0.023,-0.222,1.028,0.319,222564.0,0.0,idle
2026-02-19T15:17:19.560252,0.013,0.009,1.028,0.229,0.023,-0.222,1.028,0.319,222564.0,0.0,idle
2026-02-19T15:17:19.624613,0.013,0.009,1.028,0.229,0.023,-0.222,1.028,0.319,222564.0,0.0,idle
2026-02-19T15:17:19.640749,0.013,0.009,1.028,0.229,0.023,-0.222,1.028,0.319,222564.0,0.0,idle
2026-02-19T15:17:19.677148,0.013,0.009,1.028,0.229,0.023,-0.222,1.028,0.319,222564.0,0.0,idle
2026-02-19T15:17:19.712735,0.013,0.009,1.028,0.229,0.023,-0.222,1.028,0.319,222564.0,0.0,idle
2026-02-19T15:17:19.734235,0.013,0.009,1.028,0.229,0.023,-0.222,1.028,0.319,222564.0,0.0,idle
2026-02-19T15:17:19.759108,0.013,0.009,1.028,0.229,0.023,-0.222,1.028,0.319,222564.0,0.0,idle
2026-02-19T15:17:19.790159,0.013,0.009,1.028,0.229,0.023,-0.222,1.028,0.319,222564.0,0.0,idle
2026-02-19T15:17:19.822628,0.013,0.01,1.027,0.229,-0.047,-0.292,1.027,0.374,222894.0,0.0,idle
2026-02-19T15:17:19.849621,0.013,0.01,1.027,0.229,-0.047,-0.292,1.027,0.374,222894.0,0.0,idle
2026-02-19T15:17:19.880156,0.013,0.01,1.027,0.229,-0.047,-0.292,1.027,0.374,222894.0,0.0,idle
2026-02-19T15:17:19.914228,0.013,0.01,1.027,0.229,-0.047,-0.292,1.027,0.374,222894.0,0.0,idle
2026-02-19T15:17:19.937582,0.013,0.01,1.027,0.229,-0.047,-0.292,1.027,0.374,222894.0,0.0,idle
2026-02-19T15:17:19.947029,0.013,0.01,1.027,0.229,-0.047,-0.292,1.027,0.374,222894.0,0.0,idle
2026-02-19T15:17:19.979418,0.013,0.01,1.027,0.229,-0.047,-0.292,1.027,0.374,222894.0,0.0,idle
2026-02-19T15:17:20.008726,0.013,0.01,1.027,0.229,-0.047,-0.292,1.027,0.374,222894.0,0.0,idle
2026-02-19T15:17:20.030118,0.013,0.01,1.027,0.229,-0.047,-0.292,1.027,0.374,222894.0,0.0,idle
2026-02-19T15:17:20.066302,0.013,0.01,1.027,0.229,-0.047,-0.292,1.027,0.374,222894.0,0.0,idle
2026-02-19T15:17:20.102789,0.013,0.01,1.027,0.229,-0.047,-0.292,1.027,0.374,222894.0,0.0,idle
2026-02-19T15:17:20.127610,0.015,0.01,1.028,0.229,-0.047,-0.362,1.028,0.431,223224.0,0.0,idle
2026-02-19T15:17:20.164260,0.015,0.01,1.028,0.229,-0.047,-0.362,1.028,0.431,223224.0,0.0,idle
2026-02-19T15:17:20.195064,0.015,0.01,1.028,0.229,-0.047,-0.362,1.028,0.431,223224.0,0.0,idle
2026-02-19T15:17:20.231008,0.015,0.01,1.028,0.229,-0.047,-0.362,1.028,0.431,223224.0,0.0,idle
2026-02-19T15:17:20.266074,0.015,0.01,1.028,0.229,-0.047,-0.362,1.028,0.431,223224.0,0.0,idle
2026-02-19T15:17:20.307628,0.015,0.01,1.028,0.229,-0.047,-0.362,1.028,0.431,223224.0,0.0,idle
2026-02-19T15:17:20.340002,0.015,0.01,1.028,0.229,-0.047,-0.362,1.028,0.431,223224.0,0.0,idle
2026-02-19T15:17:20.372318,0.015,0.01,1.028,0.229,-0.047,-0.362,1.028,0.431,223224.0,0.0,idle
2026-02-19T15:17:20.396018,0.015,0.01,1.028,0.229,-0.047,-0.362,1.028,0.431,223224.0,0.0,idle
2026-02-19T15:17:20.418492,0.015,0.01,1.028,0.229,-0.047,-0.362,1.028,0.431,223224.0,0.0,idle
2026-02-19T15:17:20.447591,0.015,0.01,1.028,0.229,-0.047,-0.362,1.028,0.431,223224.0,0.0,idle
2026-02-19T15:17:20.480976,0.011,0.009,1.029,0.089,-0.047,-0.222,1.029,0.243,223554.0,0.0,idle
2026-02-19T15:17:20.503029,0.011,0.009,1.029,0.089,-0.047,-0.222,1.029,0.243,223554.0,0.0,idle
2026-02-19T15:17:20.534864,0.011,0.009,1.029,0.089,-0.047,-0.222,1.029,0.243,223554.0,0.0,idle
2026-02-19T15:17:20.565550,0.011,0.009,1.029,0.089,-0.047,-0.222,1.029,0.243,223554.0,0.0,idle
2026-02-19T15:17:20.595653,0.011,0.009,1.029,0.089,-0.047,-0.222,1.029,0.243,223554.0,0.0,idle
2026-02-19T15:17:20.607489,0.011,0.009,1.029,0.089,-0.047,-0.222,1.029,0.243,223554.0,0.0,idle
2026-02-19T15:17:20.634173,0.011,0.009,1.029,0.089,-0.047,-0.222,1.029,0.243,223554.0,0.0,idle
2026-02-19T15:17:20.664882,0.011,0.009,1.029,0.089,-0.047,-0.222,1.029,0.243,223554.0,0.0,idle
2026-02-19T15:17:20.699510,0.011,0.009,1.029,0.089,-0.047,-0.222,1.029,0.243,223554.0,0.0,idle
2026-02-19T15:17:20.727436,0.011,0.009,1.029,0.089,-0.047,-0.222,1.029,0.243,223554.0,0.0,idle
2026-02-19T15:17:20.753461,0.011,0.009,1.029,0.089,-0.047,-0.222,1.029,0.243,223554.0,0.0,idle
2026-02-19T15:17:20.784094,0.011,0.009,1.029,0.089,-0.047,-0.222,1.029,0.243,223554.0,0.0,idle
2026-02-19T15:17:20.813570,0.012,0.012,1.029,0.229,-0.047,-0.222,1.029,0.322,223884.0,0.0,idle
2026-02-19T15:17:20.835623,0.012,0.012,1.029,0.229,-0.047,-0.222,1.029,0.322,223884.0,0.0,idle
2026-02-19T15:17:20.866524,0.012,0.012,1.029,0.229,-0.047,-0.222,1.029,0.322,223884.0,0.0,idle
2026-02-19T15:17:20.900045,0.012,0.012,1.029,0.229,-0.047,-0.222,1.029,0.322,223884.0,0.0,idle
2026-02-19T15:17:20.933138,0.012,0.012,1.029,0.229,-0.047,-0.222,1.029,0.322,223884.0,0.0,idle
2026-02-19T15:17:20.967227,0.012,0.012,1.029,0.229,-0.047,-0.222,1.029,0.322,223884.0,0.0,idle
2026-02-19T15:17:20.997361,0.012,0.012,1.029,0.229,-0.047,-0.222,1.029,0.322,223884.0,0.0,idle
2026-02-19T15:17:21.020229,0.012,0.012,1.029,0.229,-0.047,-0.222,1.029,0.322,223884.0,0.0,idle
2026-02-19T15:17:21.051610,0.012,0.012,1.029,0.229,-0.047,-0.222,1.029,0.322,223884.0,0.0,idle
2026-02-19T15:17:21.057167,0.012,0.012,1.029,0.229,-0.047,-0.222,1.029,0.322,223884.0,0.0,idle
2026-02-19T15:17:21.092953,0.012,0.012,1.029,0.229,-0.047,-0.222,1.029,0.322,223884.0,0.0,idle
2026-02-19T15:17:21.119924,0.013,0.011,1.031,0.159,-0.047,-0.222,1.031,0.277,224214.0,0.0,idle
2026-02-19T15:17:21.152799,0.013,0.011,1.031,0.159,-0.047,-0.222,1.031,0.277,224214.0,0.0,idle
2026-02-19T15:17:21.183850,0.013,0.011,1.031,0.159,-0.047,-0.222,1.031,0.277,224214.0,0.0,idle
2026-02-19T15:17:21.213839,0.013,0.011,1.031,0.159,-0.047,-0.222,1.031,0.277,224214.0,0.0,idle
2026-02-19T15:17:21.245153,0.013,0.011,1.031,0.159,-0.047,-0.222,1.031,0.277,224214.0,0.0,idle
2026-02-19T15:17:21.268788,0.013,0.011,1.031,0.159,-0.047,-0.222,1.031,0.277,224214.0,0.0,idle
2026-02-19T15:17:21.303715,0.013,0.011,1.031,0.159,-0.047,-0.222,1.031,0.277,224214.0,0.0,idle
2026-02-19T15:17:21.328136,0.013,0.011,1.031,0.159,-0.047,-0.222,1.031,0.277,224214.0,0.0,idle
2026-02-19T15:17:21.361736,0.013,0.011,1.031,0.159,-0.047,-0.222,1.031,0.277,224214.0,0.0,idle
2026-02-19T15:17:21.385714,0.013,0.011,1.031,0.159,-0.047,-0.222,1.031,0.277,224214.0,0.0,idle
2026-02-19T15:17:21.417327,0.013,0.011,1.031,0.159,-0.047,-0.222,1.031,0.277,224214.0,0.0,idle
2026-02-19T15:17:21.447758,0.012,0.011,1.029,0.159,0.023,-0.222,1.029,0.274,224544.0,0.0,idle
2026-02-19T15:17:21.484800,0.012,0.011,1.029,0.159,0.023,-0.222,1.029,0.274,224544.0,0.0,idle
2026-02-19T15:17:21.515308,0.012,0.011,1.029,0.159,0.023,-0.222,1.029,0.274,224544.0,0.0,idle
2026-02-19T15:17:21.550348,0.012,0.011,1.029,0.159,0.023,-0.222,1.029,0.274,224544.0,0.0,idle
2026-02-19T15:17:21.583538,0.012,0.011,1.029,0.159,0.023,-0.222,1.029,0.274,224544.0,0.0,idle
2026-02-19T15:17:21.593070,0.012,0.011,1.029,0.159,0.023,-0.222,1.029,0.274,224544.0,0.0,idle
2026-02-19T15:17:21.619960,0.012,0.011,1.029,0.159,0.023,-0.222,1.029,0.274,224544.0,0.0,idle
2026-02-19T15:17:21.650488,0.012,0.011,1.029,0.159,0.023,-0.222,1.029,0.274,224544.0,0.0,idle
2026-02-19T15:17:21.683122,0.012,0.011,1.029,0.159,0.023,-0.222,1.029,0.274,224544.0,0.0,idle
2026-02-19T15:17:21.717378,0.012,0.011,1.029,0.159,0.023,-0.222,1.029,0.274,224544.0,0.0,idle
2026-02-19T15:17:21.750824,0.012,0.011,1.029,0.159,0.023,-0.222,1.029,0.274,224544.0,0.0,idle
2026-02-19T15:17:21.775236,0.011,0.013,1.03,0.089,-0.117,-0.292,1.03,0.327,224875.0,0.0,idle
2026-02-19T15:17:21.800091,0.011,0.013,1.03,0.089,-0.117,-0.292,1.03,0.327,224875.0,0.0,idle
2026-02-19T15:17:21.833068,0.011,0.013,1.03,0.089,-0.117,-0.292,1.03,0.327,224875.0,0.0,idle
2026-02-19T15:17:21.867327,0.011,0.013,1.03,0.089,-0.117,-0.292,1.03,0.327,224875.0,0.0,idle
2026-02-19T15:17:21.899326,0.011,0.013,1.03,0.089,-0.117,-0.292,1.03,0.327,224875.0,0.0,idle
2026-02-19T15:17:21.927523,0.011,0.013,1.03,0.089,-0.117,-0.292,1.03,0.327,224875.0,0.0,idle
2026-02-19T15:17:21.957313,0.011,0.013,1.03,0.089,-0.117,-0.292,1.03,0.327,224875.0,0.0,idle
2026-02-19T15:17:21.984077,0.011,0.013,1.03,0.089,-0.117,-0.292,1.03,0.327,224875.0,0.0,idle
2026-02-19T15:17:22.016161,0.011,0.013,1.03,0.089,-0.117,-0.292,1.03,0.327,224875.0,0.0,idle
2026-02-19T15:17:22.048507,0.011,0.013,1.03,0.089,-0.117,-0.292,1.03,0.327,224875.0,0.0,idle
2026-02-19T15:17:22.083175,0.011,0.013,1.03,0.089,-0.117,-0.292,1.03,0.327,224875.0,0.0,idle
2026-02-19T15:17:22.106738,0.014,0.008,1.03,0.299,-0.117,-0.292,1.03,0.434,225205.0,0.0,idle
2026-02-19T15:17:22.133039,0.014,0.008,1.03,0.299,-0.117,-0.292,1.03,0.434,225205.0,0.0,idle
2026-02-19T15:17:22.167111,0.014,0.008,1.03,0.299,-0.117,-0.292,1.03,0.434,225205.0,0.0,idle
2026-02-19T15:17:22.199618,0.014,0.008,1.03,0.299,-0.117,-0.292,1.03,0.434,225205.0,0.0,idle
2026-02-19T15:17:22.234673,0.014,0.008,1.03,0.299,-0.117,-0.292,1.03,0.434,225205.0,0.0,idle
2026-02-19T15:17:22.257592,0.014,0.008,1.03,0.299,-0.117,-0.292,1.03,0.434,225205.0,0.0,idle
2026-02-19T15:17:22.282908,0.014,0.008,1.03,0.299,-0.117,-0.292,1.03,0.434,225205.0,0.0,idle
2026-02-19T15:17:22.316928,0.014,0.008,1.03,0.299,-0.117,-0.292,1.03,0.434,225205.0,0.0,idle
2026-02-19T15:17:22.349529,0.014,0.008,1.03,0.299,-0.117,-0.292,1.03,0.434,225205.0,0.0,idle
2026-02-19T15:17:22.376341,0.014,0.008,1.03,0.299,-0.117,-0.292,1.03,0.434,225205.0,0.0,idle
2026-02-19T15:17:22.399900,0.014,0.008,1.03,0.299,-0.117,-0.292,1.03,0.434,225205.0,0.0,idle
2026-02-19T15:17:22.431058,0.014,0.008,1.03,0.299,-0.117,-0.292,1.03,0.434,225205.0,0.0,idle
2026-02-19T15:17:22.467663,0.013,0.009,1.03,0.229,-0.117,-0.152,1.03,0.299,225535.0,0.0,idle
2026-02-19T15:17:22.500372,0.013,0.009,1.03,0.229,-0.117,-0.152,1.03,0.299,225535.0,0.0,idle
2026-02-19T15:17:22.533333,0.013,0.009,1.03,0.229,-0.117,-0.152,1.03,0.299,225535.0,0.0,idle
2026-02-19T15:17:22.566963,0.013,0.009,1.03,0.229,-0.117,-0.152,1.03,0.299,225535.0,0.0,idle
2026-02-19T15:17:22.585604,0.013,0.009,1.03,0.229,-0.117,-0.152,1.03,0.299,225535.0,0.0,idle
2026-02-19T15:17:22.621199,0.013,0.009,1.03,0.229,-0.117,-0.152,1.03,0.299,225535.0,0.0,idle
2026-02-19T15:17:22.648098,0.013,0.009,1.03,0.229,-0.117,-0.152,1.03,0.299,225535.0,0.0,idle
2026-02-19T15:17:22.683261,0.013,0.009,1.03,0.229,-0.117,-0.152,1.03,0.299,225535.0,0.0,idle
2026-02-19T15:17:22.707607,0.013,0.009,1.03,0.229,-0.117,-0.152,1.03,0.299,225535.0,0.0,idle
2026-02-19T15:17:22.733359,0.013,0.009,1.03,0.229,-0.117,-0.152,1.03,0.299,225535.0,0.0,idle
2026-02-19T15:17:22.765815,0.013,0.009,1.03,0.229,-0.117,-0.152,1.03,0.299,225535.0,0.0,idle
2026-02-19T15:17:22.799364,0.011,0.013,1.03,0.159,-0.187,-0.292,1.03,0.381,225865.0,0.0,idle
2026-02-19T15:17:22.831844,0.011,0.013,1.03,0.159,-0.187,-0.292,1.03,0.381,225865.0,0.0,idle
2026-02-19T15:17:22.863893,0.011,0.013,1.03,0.159,-0.187,-0.292,1.03,0.381,225865.0,0.0,idle
2026-02-19T15:17:22.896568,0.011,0.013,1.03,0.159,-0.187,-0.292,1.03,0.381,225865.0,0.0,idle
2026-02-19T15:17:22.918758,0.011,0.013,1.03,0.159,-0.187,-0.292,1.03,0.381,225865.0,0.0,idle
2026-02-19T15:17:22.949455,0.011,0.013,1.03,0.159,-0.187,-0.292,1.03,0.381,225865.0,0.0,idle
2026-02-19T15:17:22.976938,0.011,0.013,1.03,0.159,-0.187,-0.292,1.03,0.381,225865.0,0.0,idle
2026-02-19T15:17:23.012187,0.011,0.013,1.03,0.159,-0.187,-0.292,1.03,0.381,225865.0,0.0,idle
2026-02-19T15:17:23.036900,0.011,0.013,1.03,0.159,-0.187,-0.292,1.03,0.381,225865.0,0.0,idle
2026-02-19T15:17:23.058619,0.011,0.013,1.03,0.159,-0.187,-0.292,1.03,0.381,225865.0,0.0,idle
2026-02-19T15:17:23.081018,0.011,0.013,1.03,0.159,-0.187,-0.292,1.03,0.381,225865.0,0.0,idle
2026-02-19T15:17:23.097059,0.011,0.01,1.028,0.229,-0.047,-0.222,1.028,0.322,226195.0,0.0,idle
2026-02-19T15:17:23.130801,0.011,0.01,1.028,0.229,-0.047,-0.222,1.028,0.322,226195.0,0.0,idle
2026-02-19T15:17:23.161541,0.011,0.01,1.028,0.229,-0.047,-0.222,1.028,0.322,226195.0,0.0,idle
2026-02-19T15:17:23.196443,0.011,0.01,1.028,0.229,-0.047,-0.222,1.028,0.322,226195.0,0.0,idle
2026-02-19T15:17:23.227357,0.011,0.01,1.028,0.229,-0.047,-0.222,1.028,0.322,226195.0,0.0,idle
2026-02-19T15:17:23.247651,0.011,0.01,1.028,0.229,-0.047,-0.222,1.028,0.322,226195.0,0.0,idle
2026-02-19T15:17:23.283333,0.011,0.01,1.028,0.229,-0.047,-0.222,1.028,0.322,226195.0,0.0,idle
2026-02-19T15:17:23.307923,0.011,0.01,1.028,0.229,-0.047,-0.222,1.028,0.322,226195.0,0.0,idle
2026-02-19T15:17:23.332013,0.011,0.01,1.028,0.229,-0.047,-0.222,1.028,0.322,226195.0,0.0,idle
2026-02-19T15:17:23.364053,0.011,0.01,1.028,0.229,-0.047,-0.222,1.028,0.322,226195.0,0.0,idle
2026-02-19T15:17:23.395264,0.011,0.01,1.028,0.229,-0.047,-0.222,1.028,0.322,226195.0,0.0,idle
2026-02-19T15:17:23.425905,0.011,0.01,1.028,0.229,-0.047,-0.222,1.028,0.322,226195.0,0.0,idle
2026-02-19T15:17:23.449629,0.013,0.013,1.03,0.159,0.023,-0.222,1.03,0.274,226525.0,0.0,idle
2026-02-19T15:17:23.484377,0.013,0.013,1.03,0.159,0.023,-0.222,1.03,0.274,226525.0,0.0,idle
2026-02-19T15:17:23.515676,0.013,0.013,1.03,0.159,0.023,-0.222,1.03,0.274,226525.0,0.0,idle
2026-02-19T15:17:23.549205,0.013,0.013,1.03,0.159,0.023,-0.222,1.03,0.274,226525.0,0.0,idle
2026-02-19T15:17:23.577660,0.013,0.013,1.03,0.159,0.023,-0.222,1.03,0.274,226525.0,0.0,idle
2026-02-19T15:17:23.602616,0.013,0.013,1.03,0.159,0.023,-0.222,1.03,0.274,226525.0,0.0,idle
2026-02-19T15:17:23.636407,0.013,0.013,1.03,0.159,0.023,-0.222,1.03,0.274,226525.0,0.0,idle
2026-02-19T15:17:23.657933,0.013,0.013,1.03,0.159,0.023,-0.222,1.03,0.274,226525.0,0.0,idle
2026-02-19T15:17:23.682691,0.013,0.013,1.03,0.159,0.023,-0.222,1.03,0.274,226525.0,0.0,idle
2026-02-19T15:17:23.698356,0.013,0.013,1.03,0.159,0.023,-0.222,1.03,0.274,226525.0,0.0,idle
2026-02-19T15:17:23.722103,0.013,0.013,1.03,0.159,0.023,-0.222,1.03,0.274,226525.0,0.0,idle
2026-02-19T15:17:23.751086,0.013,0.013,1.03,0.159,0.023,-0.222,1.03,0.274,226525.0,0.0,idle
2026-02-19T15:17:23.783101,0.013,0.01,1.029,0.299,0.023,-0.292,1.029,0.418,226855.0,0.0,idle
2026-02-19T15:17:23.814056,0.013,0.01,1.029,0.299,0.023,-0.292,1.029,0.418,226855.0,0.0,idle
2026-02-19T15:17:23.844849,0.013,0.01,1.029,0.299,0.023,-0.292,1.029,0.418,226855.0,0.0,idle
2026-02-19T15:17:23.879754,0.013,0.01,1.029,0.299,0.023,-0.292,1.029,0.418,226855.0,0.0,idle
2026-02-19T15:17:23.907432,0.013,0.01,1.029,0.299,0.023,-0.292,1.029,0.418,226855.0,0.0,idle
2026-02-19T15:17:23.929838,0.013,0.01,1.029,0.299,0.023,-0.292,1.029,0.418,226855.0,0.0,idle
2026-02-19T15:17:23.962057,0.013,0.01,1.029,0.299,0.023,-0.292,1.029,0.418,226855.0,0.0,idle
2026-02-19T15:17:23.969619,0.013,0.01,1.029,0.299,0.023,-0.292,1.029,0.418,226855.0,0.0,idle
2026-02-19T15:17:23.994050,0.013,0.01,1.029,0.299,0.023,-0.292,1.029,0.418,226855.0,0.0,idle
2026-02-19T15:17:24.024748,0.013,0.01,1.029,0.299,0.023,-0.292,1.029,0.418,226855.0,0.0,idle
2026-02-19T15:17:24.055134,0.013,0.01,1.029,0.299,0.023,-0.292,1.029,0.418,226855.0,0.0,idle
2026-02-19T15:17:24.103074,0.013,0.01,1.029,0.299,0.023,-0.292,1.029,0.418,226855.0,0.0,idle
2026-02-19T15:17:24.121863,0.015,0.012,1.032,0.159,-0.047,-0.222,1.032,0.277,227185.0,0.0,idle
2026-02-19T15:17:24.149478,0.015,0.012,1.032,0.159,-0.047,-0.222,1.032,0.277,227185.0,0.0,idle
2026-02-19T15:17:24.180091,0.015,0.012,1.032,0.159,-0.047,-0.222,1.032,0.277,227185.0,0.0,idle
2026-02-19T15:17:24.211094,0.015,0.012,1.032,0.159,-0.047,-0.222,1.032,0.277,227185.0,0.0,idle
2026-02-19T15:17:24.233565,0.015,0.012,1.032,0.159,-0.047,-0.222,1.032,0.277,227185.0,0.0,idle
2026-02-19T15:17:24.264887,0.015,0.012,1.032,0.159,-0.047,-0.222,1.032,0.277,227185.0,0.0,idle
2026-02-19T15:17:24.293991,0.015,0.012,1.032,0.159,-0.047,-0.222,1.032,0.277,227185.0,0.0,idle
2026-02-19T15:17:24.332572,0.015,0.012,1.032,0.159,-0.047,-0.222,1.032,0.277,227185.0,0.0,idle
2026-02-19T15:17:24.356997,0.015,0.012,1.032,0.159,-0.047,-0.222,1.032,0.277,227185.0,0.0,idle
2026-02-19T15:17:24.382827,0.015,0.012,1.032,0.159,-0.047,-0.222,1.032,0.277,227185.0,0.0,idle
2026-02-19T15:17:24.414243,0.015,0.012,1.032,0.159,-0.047,-0.222,1.032,0.277,227185.0,0.0,idle
2026-02-19T15:17:24.449621,0.013,0.01,1.033,0.159,-0.187,-0.222,1.033,0.331,227514.0,0.0,idle
2026-02-19T15:17:24.480408,0.013,0.01,1.033,0.159,-0.187,-0.222,1.033,0.331,227514.0,0.0,idle
2026-02-19T15:17:24.515908,0.013,0.01,1.033,0.159,-0.187,-0.222,1.033,0.331,227514.0,0.0,idle
2026-02-19T15:17:24.549652,0.013,0.01,1.033,0.159,-0.187,-0.222,1.033,0.331,227514.0,0.0,idle
2026-02-19T15:17:24.570978,0.013,0.01,1.033,0.159,-0.187,-0.222,1.033,0.331,227514.0,0.0,idle
2026-02-19T15:17:24.602253,0.013,0.01,1.033,0.159,-0.187,-0.222,1.033,0.331,227514.0,0.0,idle
2026-02-19T15:17:24.627695,0.013,0.01,1.033,0.159,-0.187,-0.222,1.033,0.331,227514.0,0.0,idle
2026-02-19T15:17:24.650081,0.013,0.01,1.033,0.159,-0.187,-0.222,1.033,0.331,227514.0,0.0,idle
2026-02-19T15:17:24.681274,0.013,0.01,1.033,0.159,-0.187,-0.222,1.033,0.331,227514.0,0.0,idle
2026-02-19T15:17:24.713230,0.013,0.01,1.033,0.159,-0.187,-0.222,1.033,0.331,227514.0,0.0,idle
2026-02-19T15:17:24.744214,0.013,0.01,1.033,0.159,-0.187,-0.222,1.033,0.331,227514.0,0.0,idle
2026-02-19T15:17:24.782960,0.012,0.01,1.027,0.299,-0.117,-0.292,1.027,0.434,227844.0,0.0,idle
2026-02-19T15:17:24.817505,0.012,0.01,1.027,0.299,-0.117,-0.292,1.027,0.434,227844.0,0.0,idle
2026-02-19T15:17:24.849563,0.012,0.01,1.027,0.299,-0.117,-0.292,1.027,0.434,227844.0,0.0,idle
2026-02-19T15:17:24.882931,0.012,0.01,1.027,0.299,-0.117,-0.292,1.027,0.434,227844.0,0.0,idle
2026-02-19T15:17:24.899698,0.012,0.01,1.027,0.299,-0.117,-0.292,1.027,0.434,227844.0,0.0,idle
2026-02-19T15:17:24.933383,0.012,0.01,1.027,0.299,-0.117,-0.292,1.027,0.434,227844.0,0.0,idle
2026-02-19T15:17:24.956634,0.012,0.01,1.027,0.299,-0.117,-0.292,1.027,0.434,227844.0,0.0,idle
2026-02-19T15:17:24.983272,0.012,0.01,1.027,0.299,-0.117,-0.292,1.027,0.434,227844.0,0.0,idle
2026-02-19T15:17:25.016487,0.012,0.01,1.027,0.299,-0.117,-0.292,1.027,0.434,227844.0,0.0,idle
2026-02-19T15:17:25.046393,0.012,0.01,1.027,0.299,-0.117,-0.292,1.027,0.434,227844.0,0.0,idle
2026-02-19T15:17:25.073610,0.014,0.01,1.028,0.229,-0.047,-0.152,1.028,0.279,228174.0,0.0,idle
2026-02-19T15:17:25.108776,0.014,0.01,1.028,0.229,-0.047,-0.152,1.028,0.279,228174.0,0.0,idle
2026-02-19T15:17:25.141556,0.014,0.01,1.028,0.229,-0.047,-0.152,1.028,0.279,228174.0,0.0,idle
2026-02-19T15:17:25.165776,0.014,0.01,1.028,0.229,-0.047,-0.152,1.028,0.279,228174.0,0.0,idle
2026-02-19T15:17:25.197907,0.014,0.01,1.028,0.229,-0.047,-0.152,1.028,0.279,228174.0,0.0,idle
2026-02-19T15:17:25.227205,0.014,0.01,1.028,0.229,-0.047,-0.152,1.028,0.279,228174.0,0.0,idle
2026-02-19T15:17:25.251472,0.014,0.01,1.028,0.229,-0.047,-0.152,1.028,0.279,228174.0,0.0,idle
2026-02-19T15:17:25.282362,0.014,0.01,1.028,0.229,-0.047,-0.152,1.028,0.279,228174.0,0.0,idle
2026-02-19T15:17:25.316421,0.014,0.01,1.028,0.229,-0.047,-0.152,1.028,0.279,228174.0,0.0,idle
2026-02-19T15:17:25.347861,0.014,0.01,1.028,0.229,-0.047,-0.152,1.028,0.279,228174.0,0.0,idle
2026-02-19T15:17:25.383618,0.014,0.01,1.028,0.229,-0.047,-0.152,1.028,0.279,228174.0,0.0,idle
2026-02-19T15:17:25.408248,0.012,0.012,1.028,0.159,-0.257,-0.152,1.028,0.338,228504.0,0.0,idle
2026-02-19T15:17:25.431275,0.012,0.012,1.028,0.159,-0.257,-0.152,1.028,0.338,228504.0,0.0,idle
2026-02-19T15:17:25.462208,0.012,0.012,1.028,0.159,-0.257,-0.152,1.028,0.338,228504.0,0.0,idle
2026-02-19T15:17:25.494225,0.012,0.012,1.028,0.159,-0.257,-0.152,1.028,0.338,228504.0,0.0,idle
2026-02-19T15:17:25.525881,0.012,0.012,1.028,0.159,-0.257,-0.152,1.028,0.338,228504.0,0.0,idle
2026-02-19T15:17:25.556829,0.012,0.012,1.028,0.159,-0.257,-0.152,1.028,0.338,228504.0,0.0,idle
2026-02-19T15:17:25.588443,0.012,0.012,1.028,0.159,-0.257,-0.152,1.028,0.338,228504.0,0.0,idle
2026-02-19T15:17:25.620364,0.012,0.012,1.028,0.159,-0.257,-0.152,1.028,0.338,228504.0,0.0,idle
2026-02-19T15:17:25.649398,0.012,0.012,1.028,0.159,-0.257,-0.152,1.028,0.338,228504.0,0.0,idle
2026-02-19T15:17:25.681801,0.012,0.012,1.028,0.159,-0.257,-0.152,1.028,0.338,228504.0,0.0,idle
2026-02-19T15:17:25.706915,0.012,0.012,1.028,0.159,-0.257,-0.152,1.028,0.338,228504.0,0.0,idle
2026-02-19T15:17:25.733350,0.012,0.012,1.028,0.159,-0.257,-0.152,1.028,0.338,228504.0,0.0,idle
2026-02-19T15:17:25.765490,0.012,0.012,1.028,0.159,-0.257,-0.152,1.028,0.338,228504.0,0.0,idle
2026-02-19T15:17:25.796259,0.014,0.011,1.032,0.159,-0.117,-0.292,1.032,0.352,228834.0,0.0,idle
2026-02-19T15:17:25.818347,0.014,0.011,1.032,0.159,-0.117,-0.292,1.032,0.352,228834.0,0.0,idle
2026-02-19T15:17:25.849099,0.014,0.011,1.032,0.159,-0.117,-0.292,1.032,0.352,228834.0,0.0,idle
2026-02-19T15:17:25.882786,0.014,0.011,1.032,0.159,-0.117,-0.292,1.032,0.352,228834.0,0.0,idle
2026-02-19T15:17:25.913125,0.014,0.011,1.032,0.159,-0.117,-0.292,1.032,0.352,228834.0,0.0,idle
2026-02-19T15:17:25.918236,0.014,0.011,1.032,0.159,-0.117,-0.292,1.032,0.352,228834.0,0.0,idle
2026-02-19T15:17:25.952993,0.014,0.011,1.032,0.159,-0.117,-0.292,1.032,0.352,228834.0,0.0,idle
2026-02-19T15:17:25.976375,0.014,0.011,1.032,0.159,-0.117,-0.292,1.032,0.352,228834.0,0.0,idle
2026-02-19T15:17:26.000794,0.014,0.011,1.032,0.159,-0.117,-0.292,1.032,0.352,228834.0,0.0,idle
2026-02-19T15:17:26.033375,0.014,0.011,1.032,0.159,-0.117,-0.292,1.032,0.352,228834.0,0.0,idle
2026-02-19T15:17:26.041577,0.014,0.011,1.032,0.159,-0.117,-0.292,1.032,0.352,228834.0,0.0,idle
2026-02-19T15:17:26.077983,0.014,0.011,1.032,0.159,-0.117,-0.292,1.032,0.352,228834.0,0.0,idle
2026-02-19T15:17:26.097479,0.013,0.009,1.028,0.089,-0.047,-0.222,1.028,0.243,229195.0,0.0,idle
2026-02-19T15:17:26.131826,0.013,0.009,1.028,0.089,-0.047,-0.222,1.028,0.243,229195.0,0.0,idle
2026-02-19T15:17:26.168299,0.013,0.009,1.028,0.089,-0.047,-0.222,1.028,0.243,229195.0,0.0,idle
2026-02-19T15:17:26.198857,0.013,0.009,1.028,0.089,-0.047,-0.222,1.028,0.243,229195.0,0.0,idle
2026-02-19T15:17:26.229898,0.013,0.009,1.028,0.089,-0.047,-0.222,1.028,0.243,229195.0,0.0,idle
2026-02-19T15:17:26.247757,0.013,0.009,1.028,0.089,-0.047,-0.222,1.028,0.243,229195.0,0.0,idle
2026-02-19T15:17:26.283262,0.013,0.009,1.028,0.089,-0.047,-0.222,1.028,0.243,229195.0,0.0,idle
2026-02-19T15:17:26.307545,0.013,0.009,1.028,0.089,-0.047,-0.222,1.028,0.243,229195.0,0.0,idle
2026-02-19T15:17:26.331356,0.013,0.009,1.028,0.089,-0.047,-0.222,1.028,0.243,229195.0,0.0,idle
2026-02-19T15:17:26.362106,0.013,0.009,1.028,0.089,-0.047,-0.222,1.028,0.243,229195.0,0.0,idle
2026-02-19T15:17:26.401658,0.013,0.009,1.028,0.089,-0.047,-0.222,1.028,0.243,229195.0,0.0,idle
2026-02-19T15:17:26.427470,0.01,0.011,1.03,0.229,-0.117,-0.292,1.03,0.389,229525.0,0.0,idle
2026-02-19T15:17:26.463135,0.01,0.011,1.03,0.229,-0.117,-0.292,1.03,0.389,229525.0,0.0,idle
2026-02-19T15:17:26.493743,0.01,0.011,1.03,0.229,-0.117,-0.292,1.03,0.389,229525.0,0.0,idle
2026-02-19T15:17:26.528002,0.01,0.011,1.03,0.229,-0.117,-0.292,1.03,0.389,229525.0,0.0,idle
2026-02-19T15:17:26.559632,0.01,0.011,1.03,0.229,-0.117,-0.292,1.03,0.389,229525.0,0.0,idle
2026-02-19T15:17:26.577480,0.01,0.011,1.03,0.229,-0.117,-0.292,1.03,0.389,229525.0,0.0,idle
2026-02-19T15:17:26.600583,0.01,0.011,1.03,0.229,-0.117,-0.292,1.03,0.389,229525.0,0.0,idle
2026-02-19T15:17:26.632511,0.01,0.011,1.03,0.229,-0.117,-0.292,1.03,0.389,229525.0,0.0,idle
2026-02-19T15:17:26.636589,0.01,0.011,1.03,0.229,-0.117,-0.292,1.03,0.389,229525.0,0.0,idle
2026-02-19T15:17:26.667711,0.01,0.011,1.03,0.229,-0.117,-0.292,1.03,0.389,229525.0,0.0,idle
2026-02-19T15:17:26.701000,0.01,0.011,1.03,0.229,-0.117,-0.292,1.03,0.389,229525.0,0.0,idle
2026-02-19T15:17:26.732804,0.01,0.011,1.03,0.229,-0.117,-0.292,1.03,0.389,229525.0,0.0,idle
2026-02-19T15:17:26.757050,0.012,0.011,1.028,0.159,-0.117,-0.222,1.028,0.297,229855.0,0.0,idle
2026-02-19T15:17:26.784532,0.012,0.011,1.028,0.159,-0.117,-0.222,1.028,0.297,229855.0,0.0,idle
2026-02-19T15:17:26.819929,0.012,0.011,1.028,0.159,-0.117,-0.222,1.028,0.297,229855.0,0.0,idle
2026-02-19T15:17:26.850297,0.012,0.011,1.028,0.159,-0.117,-0.222,1.028,0.297,229855.0,0.0,idle
2026-02-19T15:17:26.882200,0.012,0.011,1.028,0.159,-0.117,-0.222,1.028,0.297,229855.0,0.0,idle
2026-02-19T15:17:26.907954,0.012,0.011,1.028,0.159,-0.117,-0.222,1.028,0.297,229855.0,0.0,idle
2026-02-19T15:17:26.936520,0.012,0.011,1.028,0.159,-0.117,-0.222,1.028,0.297,229855.0,0.0,idle
2026-02-19T15:17:26.967615,0.012,0.011,1.028,0.159,-0.117,-0.222,1.028,0.297,229855.0,0.0,idle
2026-02-19T15:17:27.001081,0.012,0.011,1.028,0.159,-0.117,-0.222,1.028,0.297,229855.0,0.0,idle
2026-02-19T15:17:27.027501,0.012,0.011,1.028,0.159,-0.117,-0.222,1.028,0.297,229855.0,0.0,idle
2026-02-19T15:17:27.050287,0.012,0.011,1.028,0.159,-0.117,-0.222,1.028,0.297,229855.0,0.0,idle
2026-02-19T15:17:27.082842,0.012,0.011,1.028,0.159,-0.117,-0.222,1.028,0.297,229855.0,0.0,idle
2026-02-19T15:17:27.116779,0.011,0.011,1.032,0.299,-0.117,-0.292,1.032,0.434,230185.0,0.0,idle
2026-02-19T15:17:27.152248,0.011,0.011,1.032,0.299,-0.117,-0.292,1.032,0.434,230185.0,0.0,idle
2026-02-19T15:17:27.183715,0.011,0.011,1.032,0.299,-0.117,-0.292,1.032,0.434,230185.0,0.0,idle
2026-02-19T15:17:27.216415,0.011,0.011,1.032,0.299,-0.117,-0.292,1.032,0.434,230185.0,0.0,idle
2026-02-19T15:17:27.238601,0.011,0.011,1.032,0.299,-0.117,-0.292,1.032,0.434,230185.0,0.0,idle
2026-02-19T15:17:27.266131,0.011,0.011,1.032,0.299,-0.117,-0.292,1.032,0.434,230185.0,0.0,idle
2026-02-19T15:17:27.300272,0.011,0.011,1.032,0.299,-0.117,-0.292,1.032,0.434,230185.0,0.0,idle
2026-02-19T15:17:27.333749,0.011,0.011,1.032,0.299,-0.117,-0.292,1.032,0.434,230185.0,0.0,idle
2026-02-19T15:17:27.357939,0.011,0.011,1.032,0.299,-0.117,-0.292,1.032,0.434,230185.0,0.0,idle
2026-02-19T15:17:27.383547,0.011,0.011,1.032,0.299,-0.117,-0.292,1.032,0.434,230185.0,0.0,idle
2026-02-19T15:17:27.417728,0.016,0.011,1.034,0.229,0.023,-0.222,1.034,0.319,230515.0,0.0,idle
2026-02-19T15:17:27.451698,0.016,0.011,1.034,0.229,0.023,-0.222,1.034,0.319,230515.0,0.0,idle
2026-02-19T15:17:27.485830,0.016,0.011,1.034,0.229,0.023,-0.222,1.034,0.319,230515.0,0.0,idle
2026-02-19T15:17:27.518169,0.016,0.011,1.034,0.229,0.023,-0.222,1.034,0.319,230515.0,0.0,idle
2026-02-19T15:17:27.549007,0.016,0.011,1.034,0.229,0.023,-0.222,1.034,0.319,230515.0,0.0,idle
2026-02-19T15:17:27.568784,0.016,0.011,1.034,0.229,0.023,-0.222,1.034,0.319,230515.0,0.0,idle
2026-02-19T15:17:27.595366,0.016,0.011,1.034,0.229,0.023,-0.222,1.034,0.319,230515.0,0.0,idle
2026-02-19T15:17:27.623950,0.016,0.011,1.034,0.229,0.023,-0.222,1.034,0.319,230515.0,0.0,idle
2026-02-19T15:17:27.649633,0.016,0.011,1.034,0.229,0.023,-0.222,1.034,0.319,230515.0,0.0,idle
2026-02-19T15:17:27.682095,0.016,0.011,1.034,0.229,0.023,-0.222,1.034,0.319,230515.0,0.0,idle
2026-02-19T15:17:27.715708,0.016,0.011,1.034,0.229,0.023,-0.222,1.034,0.319,230515.0,0.0,idle
2026-02-19T15:17:27.752658,0.016,0.011,1.034,0.229,0.023,-0.222,1.034,0.319,230515.0,0.0,idle
2026-02-19T15:17:27.778027,0.013,0.01,1.029,0.159,-0.117,-0.222,1.029,0.297,230845.0,0.0,idle
2026-02-19T15:17:27.800267,0.013,0.01,1.029,0.159,-0.117,-0.222,1.029,0.297,230845.0,0.0,idle
2026-02-19T15:17:27.831621,0.013,0.01,1.029,0.159,-0.117,-0.222,1.029,0.297,230845.0,0.0,idle
2026-02-19T15:17:27.862352,0.013,0.01,1.029,0.159,-0.117,-0.222,1.029,0.297,230845.0,0.0,idle
2026-02-19T15:17:27.897603,0.013,0.01,1.029,0.159,-0.117,-0.222,1.029,0.297,230845.0,0.0,idle
2026-02-19T15:17:27.927251,0.013,0.01,1.029,0.159,-0.117,-0.222,1.029,0.297,230845.0,0.0,idle
2026-02-19T15:17:27.952732,0.013,0.01,1.029,0.159,-0.117,-0.222,1.029,0.297,230845.0,0.0,idle
2026-02-19T15:17:27.983541,0.013,0.01,1.029,0.159,-0.117,-0.222,1.029,0.297,230845.0,0.0,idle
2026-02-19T15:17:28.014684,0.013,0.01,1.029,0.159,-0.117,-0.222,1.029,0.297,230845.0,0.0,idle
2026-02-19T15:17:28.045233,0.013,0.01,1.029,0.159,-0.117,-0.222,1.029,0.297,230845.0,0.0,idle
2026-02-19T15:17:28.076125,0.013,0.01,1.029,0.159,-0.117,-0.222,1.029,0.297,230845.0,0.0,idle
2026-02-19T15:17:28.106749,0.013,0.01,1.029,0.159,-0.117,-0.222,1.029,0.297,230845.0,0.0,idle
2026-02-19T15:17:28.138415,0.014,0.012,1.032,0.089,-0.047,-0.152,1.032,0.182,231205.0,0.0,idle
2026-02-19T15:17:28.165860,0.014,0.012,1.032,0.089,-0.047,-0.152,1.032,0.182,231205.0,0.0,idle
2026-02-19T15:17:28.198402,0.014,0.012,1.032,0.089,-0.047,-0.152,1.032,0.182,231205.0,0.0,idle
2026-02-19T15:17:28.231681,0.014,0.012,1.032,0.089,-0.047,-0.152,1.032,0.182,231205.0,0.0,idle
2026-02-19T15:17:28.257032,0.014,0.012,1.032,0.089,-0.047,-0.152,1.032,0.182,231205.0,0.0,idle
2026-02-19T15:17:28.281721,0.014,0.012,1.032,0.089,-0.047,-0.152,1.032,0.182,231205.0,0.0,idle
2026-02-19T15:17:28.316917,0.014,0.012,1.032,0.089,-0.047,-0.152,1.032,0.182,231205.0,0.0,idle
2026-02-19T15:17:28.349324,0.014,0.012,1.032,0.089,-0.047,-0.152,1.032,0.182,231205.0,0.0,idle
2026-02-19T15:17:28.377232,0.014,0.012,1.032,0.089,-0.047,-0.152,1.032,0.182,231205.0,0.0,idle
2026-02-19T15:17:28.400179,0.014,0.012,1.032,0.089,-0.047,-0.152,1.032,0.182,231205.0,0.0,idle
2026-02-19T15:17:28.432941,0.014,0.012,1.032,0.089,-0.047,-0.152,1.032,0.182,231205.0,0.0,idle
2026-02-19T15:17:28.465704,0.013,0.009,1.032,0.159,-0.117,-0.222,1.032,0.297,231535.0,0.0,idle
2026-02-19T15:17:28.499446,0.013,0.009,1.032,0.159,-0.117,-0.222,1.032,0.297,231535.0,0.0,idle
2026-02-19T15:17:28.532952,0.013,0.009,1.032,0.159,-0.117,-0.222,1.032,0.297,231535.0,0.0,idle
2026-02-19T15:17:28.555201,0.013,0.009,1.032,0.159,-0.117,-0.222,1.032,0.297,231535.0,0.0,idle
2026-02-19T15:17:28.587387,0.013,0.009,1.032,0.159,-0.117,-0.222,1.032,0.297,231535.0,0.0,idle
2026-02-19T15:17:28.613798,0.013,0.009,1.032,0.159,-0.117,-0.222,1.032,0.297,231535.0,0.0,idle
2026-02-19T15:17:28.651969,0.013,0.009,1.032,0.159,-0.117,-0.222,1.032,0.297,231535.0,0.0,idle
2026-02-19T15:17:28.698538,0.013,0.009,1.032,0.159,-0.117,-0.222,1.032,0.297,231535.0,0.0,idle
2026-02-19T15:17:28.736604,0.013,0.009,1.032,0.159,-0.117,-0.222,1.032,0.297,231535.0,0.0,idle
2026-02-19T15:17:28.767266,0.013,0.009,1.032,0.159,-0.117,-0.222,1.032,0.297,231535.0,0.0,idle
2026-02-19T15:17:28.795906,0.011,0.01,1.027,0.299,0.023,-0.222,1.027,0.373,231865.0,0.0,idle
2026-02-19T15:17:28.830716,0.011,0.01,1.027,0.299,0.023,-0.222,1.027,0.373,231865.0,0.0,idle
2026-02-19T15:17:28.865768,0.011,0.01,1.027,0.299,0.023,-0.222,1.027,0.373,231865.0,0.0,idle
2026-02-19T15:17:28.899646,0.011,0.01,1.027,0.299,0.023,-0.222,1.027,0.373,231865.0,0.0,idle
2026-02-19T15:17:28.915603,0.011,0.01,1.027,0.299,0.023,-0.222,1.027,0.373,231865.0,0.0,idle
2026-02-19T15:17:28.945104,0.011,0.01,1.027,0.299,0.023,-0.222,1.027,0.373,231865.0,0.0,idle
2026-02-19T15:17:28.976071,0.011,0.01,1.027,0.299,0.023,-0.222,1.027,0.373,231865.0,0.0,idle
2026-02-19T15:17:29.006409,0.011,0.01,1.027,0.299,0.023,-0.222,1.027,0.373,231865.0,0.0,idle
2026-02-19T15:17:29.031382,0.011,0.01,1.027,0.299,0.023,-0.222,1.027,0.373,231865.0,0.0,idle
2026-02-19T15:17:29.061808,0.011,0.01,1.027,0.299,0.023,-0.222,1.027,0.373,231865.0,0.0,idle
2026-02-19T15:17:29.091866,0.011,0.01,1.027,0.299,0.023,-0.222,1.027,0.373,231865.0,0.0,idle
2026-02-19T15:17:29.123326,0.016,0.01,1.029,0.299,-0.047,-0.292,1.029,0.42,232195.0,0.0,idle
2026-02-19T15:17:29.153745,0.016,0.01,1.029,0.299,-0.047,-0.292,1.029,0.42,232195.0,0.0,idle
2026-02-19T15:17:29.180209,0.016,0.01,1.029,0.299,-0.047,-0.292,1.029,0.42,232195.0,0.0,idle
2026-02-19T15:17:29.212185,0.016,0.01,1.029,0.299,-0.047,-0.292,1.029,0.42,232195.0,0.0,idle
2026-02-19T15:17:29.247038,0.016,0.01,1.029,0.299,-0.047,-0.292,1.029,0.42,232195.0,0.0,idle
2026-02-19T15:17:29.271430,0.016,0.01,1.029,0.299,-0.047,-0.292,1.029,0.42,232195.0,0.0,idle
2026-02-19T15:17:29.302879,0.016,0.01,1.029,0.299,-0.047,-0.292,1.029,0.42,232195.0,0.0,idle
2026-02-19T15:17:29.308384,0.016,0.01,1.029,0.299,-0.047,-0.292,1.029,0.42,232195.0,0.0,idle
2026-02-19T15:17:29.332437,0.016,0.01,1.029,0.299,-0.047,-0.292,1.029,0.42,232195.0,0.0,idle
2026-02-19T15:17:29.367402,0.016,0.01,1.029,0.299,-0.047,-0.292,1.029,0.42,232195.0,0.0,idle
2026-02-19T15:17:29.401857,0.016,0.01,1.029,0.299,-0.047,-0.292,1.029,0.42,232195.0,0.0,idle
2026-02-19T15:17:29.426943,0.012,0.009,1.027,0.229,-0.047,-0.222,1.027,0.322,232525.0,0.0,idle
2026-02-19T15:17:29.453799,0.012,0.009,1.027,0.229,-0.047,-0.222,1.027,0.322,232525.0,0.0,idle
2026-02-19T15:17:29.480709,0.012,0.009,1.027,0.229,-0.047,-0.222,1.027,0.322,232525.0,0.0,idle
2026-02-19T15:17:29.514836,0.012,0.009,1.027,0.229,-0.047,-0.222,1.027,0.322,232525.0,0.0,idle
2026-02-19T15:17:29.545557,0.012,0.009,1.027,0.229,-0.047,-0.222,1.027,0.322,232525.0,0.0,idle
2026-02-19T15:17:29.576313,0.012,0.009,1.027,0.229,-0.047,-0.222,1.027,0.322,232525.0,0.0,idle
2026-02-19T15:17:29.608602,0.012,0.009,1.027,0.229,-0.047,-0.222,1.027,0.322,232525.0,0.0,idle
2026-02-19T15:17:29.636863,0.012,0.009,1.027,0.229,-0.047,-0.222,1.027,0.322,232525.0,0.0,idle
2026-02-19T15:17:29.669985,0.012,0.009,1.027,0.229,-0.047,-0.222,1.027,0.322,232525.0,0.0,idle
2026-02-19T15:17:29.698386,0.012,0.009,1.027,0.229,-0.047,-0.222,1.027,0.322,232525.0,0.0,idle
2026-02-19T15:17:29.732263,0.012,0.009,1.027,0.229,-0.047,-0.222,1.027,0.322,232525.0,0.0,idle
2026-02-19T15:17:29.756382,0.014,0.01,1.029,0.159,-0.047,-0.292,1.029,0.335,232855.0,0.0,idle
2026-02-19T15:17:29.783617,0.014,0.01,1.029,0.159,-0.047,-0.292,1.029,0.335,232855.0,0.0,idle
2026-02-19T15:17:29.818074,0.014,0.01,1.029,0.159,-0.047,-0.292,1.029,0.335,232855.0,0.0,idle
2026-02-19T15:17:29.845268,0.014,0.01,1.029,0.159,-0.047,-0.292,1.029,0.335,232855.0,0.0,idle
2026-02-19T15:17:29.880199,0.014,0.01,1.029,0.159,-0.047,-0.292,1.029,0.335,232855.0,0.0,idle
2026-02-19T15:17:29.907360,0.014,0.01,1.029,0.159,-0.047,-0.292,1.029,0.335,232855.0,0.0,idle
2026-02-19T15:17:29.930721,0.014,0.01,1.029,0.159,-0.047,-0.292,1.029,0.335,232855.0,0.0,idle
2026-02-19T15:17:29.965898,0.014,0.01,1.029,0.159,-0.047,-0.292,1.029,0.335,232855.0,0.0,idle
2026-02-19T15:17:29.996285,0.014,0.01,1.029,0.159,-0.047,-0.292,1.029,0.335,232855.0,0.0,idle
2026-02-19T15:17:30.027483,0.014,0.01,1.029,0.159,-0.047,-0.292,1.029,0.335,232855.0,0.0,idle
2026-02-19T15:17:30.052471,0.014,0.01,1.029,0.159,-0.047,-0.292,1.029,0.335,232855.0,0.0,idle
2026-02-19T15:17:30.083760,0.014,0.01,1.029,0.159,-0.047,-0.292,1.029,0.335,232855.0,0.0,idle
2026-02-19T15:17:30.115053,0.014,0.013,1.03,0.159,-0.187,-0.292,1.03,0.381,233185.0,0.0,idle
2026-02-19T15:17:30.137196,0.014,0.013,1.03,0.159,-0.187,-0.292,1.03,0.381,233185.0,0.0,idle
2026-02-19T15:17:30.164885,0.014,0.013,1.03,0.159,-0.187,-0.292,1.03,0.381,233185.0,0.0,idle
2026-02-19T15:17:30.195085,0.014,0.013,1.03,0.159,-0.187,-0.292,1.03,0.381,233185.0,0.0,idle
2026-02-19T15:17:30.226086,0.014,0.013,1.03,0.159,-0.187,-0.292,1.03,0.381,233185.0,0.0,idle
2026-02-19T15:17:30.237817,0.014,0.013,1.03,0.159,-0.187,-0.292,1.03,0.381,233185.0,0.0,idle
2026-02-19T15:17:30.266570,0.014,0.013,1.03,0.159,-0.187,-0.292,1.03,0.381,233185.0,0.0,idle
2026-02-19T15:17:30.298168,0.014,0.013,1.03,0.159,-0.187,-0.292,1.03,0.381,233185.0,0.0,idle
2026-02-19T15:17:30.328523,0.014,0.013,1.03,0.159,-0.187,-0.292,1.03,0.381,233185.0,0.0,idle
2026-02-19T15:17:30.356934,0.014,0.013,1.03,0.159,-0.187,-0.292,1.03,0.381,233185.0,0.0,idle
2026-02-19T15:17:30.384230,0.014,0.013,1.03,0.159,-0.187,-0.292,1.03,0.381,233185.0,0.0,idle
2026-02-19T15:17:30.415267,0.014,0.013,1.03,0.159,-0.187,-0.292,1.03,0.381,233185.0,0.0,idle
2026-02-19T15:17:30.445591,0.014,0.011,1.032,0.089,-0.047,-0.222,1.032,0.243,233515.0,0.0,idle
2026-02-19T15:17:30.476737,0.014,0.011,1.032,0.089,-0.047,-0.222,1.032,0.243,233515.0,0.0,idle
2026-02-19T15:17:30.508085,0.014,0.011,1.032,0.089,-0.047,-0.222,1.032,0.243,233515.0,0.0,idle
2026-02-19T15:17:30.540072,0.014,0.011,1.032,0.089,-0.047,-0.222,1.032,0.243,233515.0,0.0,idle
2026-02-19T15:17:30.564775,0.014,0.011,1.032,0.089,-0.047,-0.222,1.032,0.243,233515.0,0.0,idle
2026-02-19T15:17:30.597420,0.014,0.011,1.032,0.089,-0.047,-0.222,1.032,0.243,233515.0,0.0,idle
2026-02-19T15:17:30.627777,0.014,0.011,1.032,0.089,-0.047,-0.222,1.032,0.243,233515.0,0.0,idle
2026-02-19T15:17:30.658677,0.014,0.011,1.032,0.089,-0.047,-0.222,1.032,0.243,233515.0,0.0,idle
2026-02-19T15:17:30.687802,0.014,0.011,1.032,0.089,-0.047,-0.222,1.032,0.243,233515.0,0.0,idle
2026-02-19T15:17:30.720388,0.014,0.011,1.032,0.089,-0.047,-0.222,1.032,0.243,233515.0,0.0,idle
2026-02-19T15:17:30.748670,0.012,0.012,1.031,0.089,-0.117,-0.292,1.031,0.327,233845.0,0.0,idle
2026-02-19T15:17:30.779948,0.012,0.012,1.031,0.089,-0.117,-0.292,1.031,0.327,233845.0,0.0,idle
2026-02-19T15:17:30.814987,0.012,0.012,1.031,0.089,-0.117,-0.292,1.031,0.327,233845.0,0.0,idle
2026-02-19T15:17:30.849664,0.012,0.012,1.031,0.089,-0.117,-0.292,1.031,0.327,233845.0,0.0,idle
2026-02-19T15:17:30.881988,0.012,0.012,1.031,0.089,-0.117,-0.292,1.031,0.327,233845.0,0.0,idle
2026-02-19T15:17:30.898413,0.012,0.012,1.031,0.089,-0.117,-0.292,1.031,0.327,233845.0,0.0,idle
2026-02-19T15:17:30.924565,0.012,0.012,1.031,0.089,-0.117,-0.292,1.031,0.327,233845.0,0.0,idle
2026-02-19T15:17:30.947107,0.012,0.012,1.031,0.089,-0.117,-0.292,1.031,0.327,233845.0,0.0,idle
2026-02-19T15:17:30.980436,0.012,0.012,1.031,0.089,-0.117,-0.292,1.031,0.327,233845.0,0.0,idle
2026-02-19T15:17:31.015615,0.012,0.012,1.031,0.089,-0.117,-0.292,1.031,0.327,233845.0,0.0,idle
2026-02-19T15:17:31.048276,0.012,0.012,1.031,0.089,-0.117,-0.292,1.031,0.327,233845.0,0.0,idle
2026-02-19T15:17:31.077891,0.013,0.013,1.031,0.159,0.023,-0.292,1.031,0.333,234175.0,0.0,idle
2026-02-19T15:17:31.112199,0.013,0.013,1.031,0.159,0.023,-0.292,1.031,0.333,234175.0,0.0,idle
2026-02-19T15:17:31.145461,0.013,0.013,1.031,0.159,0.023,-0.292,1.031,0.333,234175.0,0.0,idle
2026-02-19T15:17:31.180935,0.013,0.013,1.031,0.159,0.023,-0.292,1.031,0.333,234175.0,0.0,idle
2026-02-19T15:17:31.213409,0.013,0.013,1.031,0.159,0.023,-0.292,1.031,0.333,234175.0,0.0,idle
2026-02-19T15:17:31.250458,0.013,0.013,1.031,0.159,0.023,-0.292,1.031,0.333,234175.0,0.0,idle
2026-02-19T15:17:31.282213,0.013,0.013,1.031,0.159,0.023,-0.292,1.031,0.333,234175.0,0.0,idle
2026-02-19T15:17:31.313930,0.013,0.013,1.031,0.159,0.023,-0.292,1.031,0.333,234175.0,0.0,idle
2026-02-19T15:17:31.348122,0.013,0.013,1.031,0.159,0.023,-0.292,1.031,0.333,234175.0,0.0,idle
2026-02-19T15:17:31.373778,0.013,0.013,1.031,0.159,0.023,-0.292,1.031,0.333,234175.0,0.0,idle
2026-02-19T15:17:31.400289,0.013,0.013,1.031,0.159,0.023,-0.292,1.031,0.333,234175.0,0.0,idle
2026-02-19T15:17:31.433636,0.012,0.009,1.029,0.229,-0.117,-0.292,1.029,0.389,234505.0,0.0,idle
2026-02-19T15:17:31.465653,0.012,0.009,1.029,0.229,-0.117,-0.292,1.029,0.389,234505.0,0.0,idle
2026-02-19T15:17:31.499660,0.012,0.009,1.029,0.229,-0.117,-0.292,1.029,0.389,234505.0,0.0,idle
2026-02-19T15:17:31.530633,0.012,0.009,1.029,0.229,-0.117,-0.292,1.029,0.389,234505.0,0.0,idle
2026-02-19T15:17:31.557108,0.012,0.009,1.029,0.229,-0.117,-0.292,1.029,0.389,234505.0,0.0,idle
2026-02-19T15:17:31.584030,0.012,0.009,1.029,0.229,-0.117,-0.292,1.029,0.389,234505.0,0.0,idle
2026-02-19T15:17:31.615839,0.012,0.009,1.029,0.229,-0.117,-0.292,1.029,0.389,234505.0,0.0,idle
2026-02-19T15:17:31.647410,0.012,0.009,1.029,0.229,-0.117,-0.292,1.029,0.389,234505.0,0.0,idle
2026-02-19T15:17:31.671090,0.012,0.009,1.029,0.229,-0.117,-0.292,1.029,0.389,234505.0,0.0,idle
2026-02-19T15:17:31.700177,0.012,0.009,1.029,0.229,-0.117,-0.292,1.029,0.389,234505.0,0.0,idle
2026-02-19T15:17:31.733973,0.012,0.009,1.029,0.229,-0.117,-0.292,1.029,0.389,234505.0,0.0,idle
2026-02-19T15:17:31.764833,0.012,0.011,1.03,0.229,-0.117,-0.292,1.03,0.389,234835.0,0.0,idle
2026-02-19T15:17:31.797850,0.012,0.011,1.03,0.229,-0.117,-0.292,1.03,0.389,234835.0,0.0,idle
2026-02-19T15:17:31.831768,0.012,0.011,1.03,0.229,-0.117,-0.292,1.03,0.389,234835.0,0.0,idle
2026-02-19T15:17:31.865087,0.012,0.011,1.03,0.229,-0.117,-0.292,1.03,0.389,234835.0,0.0,idle
2026-02-19T15:17:31.887384,0.012,0.011,1.03,0.229,-0.117,-0.292,1.03,0.389,234835.0,0.0,idle
2026-02-19T15:17:31.913440,0.012,0.011,1.03,0.229,-0.117,-0.292,1.03,0.389,234835.0,0.0,idle
2026-02-19T15:17:31.950191,0.012,0.011,1.03,0.229,-0.117,-0.292,1.03,0.389,234835.0,0.0,idle
2026-02-19T15:17:31.983454,0.012,0.011,1.03,0.229,-0.117,-0.292,1.03,0.389,234835.0,0.0,idle
2026-02-19T15:17:32.006380,0.012,0.011,1.03,0.229,-0.117,-0.292,1.03,0.389,234835.0,0.0,idle
2026-02-19T15:17:32.034010,0.012,0.011,1.03,0.229,-0.117,-0.292,1.03,0.389,234835.0,0.0,idle
2026-02-19T15:17:32.065413,0.012,0.011,1.03,0.229,-0.117,-0.292,1.03,0.389,234835.0,0.0,idle
2026-02-19T15:17:32.097515,0.013,0.01,1.03,0.229,-0.047,-0.362,1.03,0.431,235166.0,0.0,idle
2026-02-19T15:17:32.129583,0.013,0.01,1.03,0.229,-0.047,-0.362,1.03,0.431,235166.0,0.0,idle
2026-02-19T15:17:32.161413,0.013,0.01,1.03,0.229,-0.047,-0.362,1.03,0.431,235166.0,0.0,idle
2026-02-19T15:17:32.183221,0.013,0.01,1.03,0.229,-0.047,-0.362,1.03,0.431,235166.0,0.0,idle
2026-02-19T15:17:32.214674,0.013,0.01,1.03,0.229,-0.047,-0.362,1.03,0.431,235166.0,0.0,idle
2026-02-19T15:17:32.244811,0.013,0.01,1.03,0.229,-0.047,-0.362,1.03,0.431,235166.0,0.0,idle
2026-02-19T15:17:32.276868,0.013,0.01,1.03,0.229,-0.047,-0.362,1.03,0.431,235166.0,0.0,idle
2026-02-19T15:17:32.306918,0.013,0.01,1.03,0.229,-0.047,-0.362,1.03,0.431,235166.0,0.0,idle
2026-02-19T15:17:32.328723,0.013,0.01,1.03,0.229,-0.047,-0.362,1.03,0.431,235166.0,0.0,idle
2026-02-19T15:17:32.359264,0.013,0.01,1.03,0.229,-0.047,-0.362,1.03,0.431,235166.0,0.0,idle
2026-02-19T15:17:32.398072,0.013,0.01,1.03,0.229,-0.047,-0.362,1.03,0.431,235166.0,0.0,idle
2026-02-19T15:17:32.427040,0.013,0.011,1.032,0.159,-0.047,-0.292,1.032,0.335,235495.0,0.0,idle
2026-02-19T15:17:32.448169,0.013,0.011,1.032,0.159,-0.047,-0.292,1.032,0.335,235495.0,0.0,idle
2026-02-19T15:17:32.479392,0.013,0.011,1.032,0.159,-0.047,-0.292,1.032,0.335,235495.0,0.0,idle
2026-02-19T15:17:32.510198,0.013,0.011,1.032,0.159,-0.047,-0.292,1.032,0.335,235495.0,0.0,idle
2026-02-19T15:17:32.544536,0.013,0.011,1.032,0.159,-0.047,-0.292,1.032,0.335,235495.0,0.0,idle
2026-02-19T15:17:32.577092,0.013,0.011,1.032,0.159,-0.047,-0.292,1.032,0.335,235495.0,0.0,idle
2026-02-19T15:17:32.600214,0.013,0.011,1.032,0.159,-0.047,-0.292,1.032,0.335,235495.0,0.0,idle
2026-02-19T15:17:32.630720,0.013,0.011,1.032,0.159,-0.047,-0.292,1.032,0.335,235495.0,0.0,idle
2026-02-19T15:17:32.636655,0.013,0.011,1.032,0.159,-0.047,-0.292,1.032,0.335,235495.0,0.0,idle
2026-02-19T15:17:32.666852,0.013,0.011,1.032,0.159,-0.047,-0.292,1.032,0.335,235495.0,0.0,idle
2026-02-19T15:17:32.698304,0.013,0.011,1.032,0.159,-0.047,-0.292,1.032,0.335,235495.0,0.0,idle
2026-02-19T15:17:32.727795,0.013,0.011,1.032,0.159,-0.047,-0.292,1.032,0.335,235495.0,0.0,idle
2026-02-19T15:17:32.756251,0.013,0.011,1.03,0.229,-0.047,-0.222,1.03,0.322,235855.0,0.0,idle
2026-02-19T15:17:32.778641,0.013,0.011,1.03,0.229,-0.047,-0.222,1.03,0.322,235855.0,0.0,idle
2026-02-19T15:17:32.809178,0.013,0.011,1.03,0.229,-0.047,-0.222,1.03,0.322,235855.0,0.0,idle
2026-02-19T15:17:32.843957,0.013,0.011,1.03,0.229,-0.047,-0.222,1.03,0.322,235855.0,0.0,idle
2026-02-19T15:17:32.875360,0.013,0.011,1.03,0.229,-0.047,-0.222,1.03,0.322,235855.0,0.0,idle
2026-02-19T15:17:32.898099,0.013,0.011,1.03,0.229,-0.047,-0.222,1.03,0.322,235855.0,0.0,idle
2026-02-19T15:17:32.907646,0.013,0.011,1.03,0.229,-0.047,-0.222,1.03,0.322,235855.0,0.0,idle
2026-02-19T15:17:32.931218,0.013,0.011,1.03,0.229,-0.047,-0.222,1.03,0.322,235855.0,0.0,idle
2026-02-19T15:17:32.961637,0.013,0.011,1.03,0.229,-0.047,-0.222,1.03,0.322,235855.0,0.0,idle
2026-02-19T15:17:32.967835,0.013,0.011,1.03,0.229,-0.047,-0.222,1.03,0.322,235855.0,0.0,idle
2026-02-19T15:17:32.998937,0.013,0.011,1.03,0.229,-0.047,-0.222,1.03,0.322,235855.0,0.0,idle
2026-02-19T15:17:33.026735,0.013,0.011,1.03,0.229,-0.047,-0.222,1.03,0.322,235855.0,0.0,idle
2026-02-19T15:17:33.063822,0.013,0.011,1.03,0.229,-0.047,-0.222,1.03,0.322,235855.0,0.0,idle
2026-02-19T15:17:33.086748,0.012,0.012,1.03,0.159,-0.117,-0.222,1.03,0.297,236185.0,0.0,idle
2026-02-19T15:17:33.114763,0.012,0.012,1.03,0.159,-0.117,-0.222,1.03,0.297,236185.0,0.0,idle
2026-02-19T15:17:33.146704,0.012,0.012,1.03,0.159,-0.117,-0.222,1.03,0.297,236185.0,0.0,idle
2026-02-19T15:17:33.181803,0.012,0.012,1.03,0.159,-0.117,-0.222,1.03,0.297,236185.0,0.0,idle
2026-02-19T15:17:33.220603,0.012,0.012,1.03,0.159,-0.117,-0.222,1.03,0.297,236185.0,0.0,idle
2026-02-19T15:17:33.237768,0.012,0.012,1.03,0.159,-0.117,-0.222,1.03,0.297,236185.0,0.0,idle
2026-02-19T15:17:33.265069,0.012,0.012,1.03,0.159,-0.117,-0.222,1.03,0.297,236185.0,0.0,idle
2026-02-19T15:17:33.297812,0.012,0.012,1.03,0.159,-0.117,-0.222,1.03,0.297,236185.0,0.0,idle
2026-02-19T15:17:33.333262,0.012,0.012,1.03,0.159,-0.117,-0.222,1.03,0.297,236185.0,0.0,idle
2026-02-19T15:17:33.361454,0.012,0.012,1.03,0.159,-0.117,-0.222,1.03,0.297,236185.0,0.0,idle
2026-02-19T15:17:33.396822,0.012,0.012,1.03,0.159,-0.117,-0.222,1.03,0.297,236185.0,0.0,idle
2026-02-19T15:17:33.418185,0.013,0.011,1.031,0.159,-0.117,-0.292,1.031,0.352,236515.0,0.0,idle
2026-02-19T15:17:33.448383,0.013,0.011,1.031,0.159,-0.117,-0.292,1.031,0.352,236515.0,0.0,idle
2026-02-19T15:17:33.480218,0.013,0.011,1.031,0.159,-0.117,-0.292,1.031,0.352,236515.0,0.0,idle
2026-02-19T15:17:33.514944,0.013,0.011,1.031,0.159,-0.117,-0.292,1.031,0.352,236515.0,0.0,idle
2026-02-19T15:17:33.548452,0.013,0.011,1.031,0.159,-0.117,-0.292,1.031,0.352,236515.0,0.0,idle
2026-02-19T15:17:33.567760,0.013,0.011,1.031,0.159,-0.117,-0.292,1.031,0.352,236515.0,0.0,idle
2026-02-19T15:17:33.594132,0.013,0.011,1.031,0.159,-0.117,-0.292,1.031,0.352,236515.0,0.0,idle
2026-02-19T15:17:33.620255,0.013,0.011,1.031,0.159,-0.117,-0.292,1.031,0.352,236515.0,0.0,idle
2026-02-19T15:17:33.654532,0.013,0.011,1.031,0.159,-0.117,-0.292,1.031,0.352,236515.0,0.0,idle
2026-02-19T15:17:33.687220,0.013,0.011,1.031,0.159,-0.117,-0.292,1.031,0.352,236515.0,0.0,idle
2026-02-19T15:17:33.713732,0.013,0.011,1.031,0.159,-0.117,-0.292,1.031,0.352,236515.0,0.0,idle
2026-02-19T15:17:33.746161,0.013,0.011,1.031,0.159,-0.117,-0.292,1.031,0.352,236515.0,0.0,idle
2026-02-19T15:17:33.781079,0.012,0.01,1.032,0.369,-0.187,-0.292,1.032,0.506,236845.0,0.0,idle
2026-02-19T15:17:33.812702,0.012,0.01,1.032,0.369,-0.187,-0.292,1.032,0.506,236845.0,0.0,idle
2026-02-19T15:17:33.846122,0.012,0.01,1.032,0.369,-0.187,-0.292,1.032,0.506,236845.0,0.0,idle
2026-02-19T15:17:33.880384,0.012,0.01,1.032,0.369,-0.187,-0.292,1.032,0.506,236845.0,0.0,idle
2026-02-19T15:17:33.900596,0.012,0.01,1.032,0.369,-0.187,-0.292,1.032,0.506,236845.0,0.0,idle
2026-02-19T15:17:33.933160,0.012,0.01,1.032,0.369,-0.187,-0.292,1.032,0.506,236845.0,0.0,idle
2026-02-19T15:17:33.957066,0.012,0.01,1.032,0.369,-0.187,-0.292,1.032,0.506,236845.0,0.0,idle
2026-02-19T15:17:33.979380,0.012,0.01,1.032,0.369,-0.187,-0.292,1.032,0.506,236845.0,0.0,idle
2026-02-19T15:17:34.010464,0.012,0.01,1.032,0.369,-0.187,-0.292,1.032,0.506,236845.0,0.0,idle
2026-02-19T15:17:34.048984,0.012,0.01,1.032,0.369,-0.187,-0.292,1.032,0.506,236845.0,0.0,idle
2026-02-19T15:17:34.080578,0.012,0.01,1.032,0.369,-0.187,-0.292,1.032,0.506,236845.0,0.0,idle
2026-02-19T15:17:34.106061,0.012,0.012,1.031,0.089,0.093,-0.222,1.031,0.256,237175.0,0.0,idle
2026-02-19T15:17:34.132591,0.012,0.012,1.031,0.089,0.093,-0.222,1.031,0.256,237175.0,0.0,idle
2026-02-19T15:17:34.162009,0.012,0.012,1.031,0.089,0.093,-0.222,1.031,0.256,237175.0,0.0,idle
2026-02-19T15:17:34.192959,0.012,0.012,1.031,0.089,0.093,-0.222,1.031,0.256,237175.0,0.0,idle
2026-02-19T15:17:34.224311,0.012,0.012,1.031,0.089,0.093,-0.222,1.031,0.256,237175.0,0.0,idle
2026-02-19T15:17:34.249283,0.012,0.012,1.031,0.089,0.093,-0.222,1.031,0.256,237175.0,0.0,idle
2026-02-19T15:17:34.284781,0.012,0.012,1.031,0.089,0.093,-0.222,1.031,0.256,237175.0,0.0,idle
2026-02-19T15:17:34.316019,0.012,0.012,1.031,0.089,0.093,-0.222,1.031,0.256,237175.0,0.0,idle
2026-02-19T15:17:34.347133,0.012,0.012,1.031,0.089,0.093,-0.222,1.031,0.256,237175.0,0.0,idle
2026-02-19T15:17:34.382786,0.012,0.012,1.031,0.089,0.093,-0.222,1.031,0.256,237175.0,0.0,idle
2026-02-19T15:17:34.407236,0.013,0.011,1.03,0.159,-0.117,-0.222,1.03,0.297,237505.0,0.0,idle
2026-02-19T15:17:34.442427,0.013,0.011,1.03,0.159,-0.117,-0.222,1.03,0.297,237505.0,0.0,idle
2026-02-19T15:17:34.473701,0.013,0.011,1.03,0.159,-0.117,-0.222,1.03,0.297,237505.0,0.0,idle
2026-02-19T15:17:34.505229,0.013,0.011,1.03,0.159,-0.117,-0.222,1.03,0.297,237505.0,0.0,idle
2026-02-19T15:17:34.529169,0.013,0.011,1.03,0.159,-0.117,-0.222,1.03,0.297,237505.0,0.0,idle
2026-02-19T15:17:34.555223,0.013,0.011,1.03,0.159,-0.117,-0.222,1.03,0.297,237505.0,0.0,idle
2026-02-19T15:17:34.577869,0.013,0.011,1.03,0.159,-0.117,-0.222,1.03,0.297,237505.0,0.0,idle
2026-02-19T15:17:34.608838,0.013,0.011,1.03,0.159,-0.117,-0.222,1.03,0.297,237505.0,0.0,idle
2026-02-19T15:17:34.646188,0.013,0.011,1.03,0.159,-0.117,-0.222,1.03,0.297,237505.0,0.0,idle
2026-02-19T15:17:34.676168,0.013,0.011,1.03,0.159,-0.117,-0.222,1.03,0.297,237505.0,0.0,idle
2026-02-19T15:17:34.706512,0.013,0.011,1.03,0.159,-0.117,-0.222,1.03,0.297,237505.0,0.0,idle
2026-02-19T15:17:34.736963,0.013,0.011,1.03,0.159,-0.117,-0.222,1.03,0.297,237505.0,0.0,idle
2026-02-19T15:17:34.761456,0.014,0.012,1.03,0.299,-0.117,-0.222,1.03,0.39,237835.0,0.0,idle
2026-02-19T15:17:34.796269,0.014,0.012,1.03,0.299,-0.117,-0.222,1.03,0.39,237835.0,0.0,idle
2026-02-19T15:17:34.826544,0.014,0.012,1.03,0.299,-0.117,-0.222,1.03,0.39,237835.0,0.0,idle
2026-02-19T15:17:34.860503,0.014,0.012,1.03,0.299,-0.117,-0.222,1.03,0.39,237835.0,0.0,idle
2026-02-19T15:17:34.884913,0.014,0.012,1.03,0.299,-0.117,-0.222,1.03,0.39,237835.0,0.0,idle
2026-02-19T15:17:34.918488,0.014,0.012,1.03,0.299,-0.117,-0.222,1.03,0.39,237835.0,0.0,idle
2026-02-19T15:17:34.945934,0.014,0.012,1.03,0.299,-0.117,-0.222,1.03,0.39,237835.0,0.0,idle
2026-02-19T15:17:34.977570,0.014,0.012,1.03,0.299,-0.117,-0.222,1.03,0.39,237835.0,0.0,idle
2026-02-19T15:17:35.006995,0.014,0.012,1.03,0.299,-0.117,-0.222,1.03,0.39,237835.0,0.0,idle
2026-02-19T15:17:35.041650,0.014,0.012,1.03,0.299,-0.117,-0.222,1.03,0.39,237835.0,0.0,idle
2026-02-19T15:17:35.067563,0.012,0.011,1.03,0.229,-0.047,-0.222,1.03,0.322,238165.0,0.0,idle
2026-02-19T15:17:35.094046,0.012,0.011,1.03,0.229,-0.047,-0.222,1.03,0.322,238165.0,0.0,idle
2026-02-19T15:17:35.124543,0.012,0.011,1.03,0.229,-0.047,-0.222,1.03,0.322,238165.0,0.0,idle
2026-02-19T15:17:35.145730,0.012,0.011,1.03,0.229,-0.047,-0.222,1.03,0.322,238165.0,0.0,idle
2026-02-19T15:17:35.176637,0.012,0.011,1.03,0.229,-0.047,-0.222,1.03,0.322,238165.0,0.0,idle
2026-02-19T15:17:35.208070,0.012,0.011,1.03,0.229,-0.047,-0.222,1.03,0.322,238165.0,0.0,idle
2026-02-19T15:17:35.216880,0.012,0.011,1.03,0.229,-0.047,-0.222,1.03,0.322,238165.0,0.0,idle
2026-02-19T15:17:35.238871,0.012,0.011,1.03,0.229,-0.047,-0.222,1.03,0.322,238165.0,0.0,idle
2026-02-19T15:17:35.266679,0.012,0.011,1.03,0.229,-0.047,-0.222,1.03,0.322,238165.0,0.0,idle
2026-02-19T15:17:35.276447,0.012,0.011,1.03,0.229,-0.047,-0.222,1.03,0.322,238165.0,0.0,idle
2026-02-19T15:17:35.299359,0.012,0.011,1.03,0.229,-0.047,-0.222,1.03,0.322,238165.0,0.0,idle
2026-02-19T15:17:35.329655,0.012,0.011,1.03,0.229,-0.047,-0.222,1.03,0.322,238165.0,0.0,idle
2026-02-19T15:17:35.363083,0.012,0.011,1.03,0.229,-0.047,-0.222,1.03,0.322,238165.0,0.0,idle
2026-02-19T15:17:35.393269,0.012,0.011,1.03,0.229,-0.047,-0.222,1.03,0.322,238165.0,0.0,idle
2026-02-19T15:17:35.400754,0.013,0.012,1.031,0.159,-0.117,-0.222,1.031,0.297,238495.0,0.0,idle
2026-02-19T15:17:35.431758,0.013,0.012,1.031,0.159,-0.117,-0.222,1.031,0.297,238495.0,0.0,idle
2026-02-19T15:17:35.462536,0.013,0.012,1.031,0.159,-0.117,-0.222,1.031,0.297,238495.0,0.0,idle
2026-02-19T15:17:35.492612,0.013,0.012,1.031,0.159,-0.117,-0.222,1.031,0.297,238495.0,0.0,idle
2026-02-19T15:17:35.523712,0.013,0.012,1.031,0.159,-0.117,-0.222,1.031,0.297,238495.0,0.0,idle
2026-02-19T15:17:35.545893,0.013,0.012,1.031,0.159,-0.117,-0.222,1.031,0.297,238495.0,0.0,idle
2026-02-19T15:17:35.583000,0.013,0.012,1.031,0.159,-0.117,-0.222,1.031,0.297,238495.0,0.0,idle
2026-02-19T15:17:35.607297,0.013,0.012,1.031,0.159,-0.117,-0.222,1.031,0.297,238495.0,0.0,idle
2026-02-19T15:17:35.643366,0.013,0.012,1.031,0.159,-0.117,-0.222,1.031,0.297,238495.0,0.0,idle
2026-02-19T15:17:35.668098,0.013,0.012,1.031,0.159,-0.117,-0.222,1.031,0.297,238495.0,0.0,idle
2026-02-19T15:17:35.699462,0.013,0.012,1.031,0.159,-0.117,-0.222,1.031,0.297,238495.0,0.0,idle
2026-02-19T15:17:35.722239,0.014,0.012,1.033,0.159,-0.117,-0.292,1.033,0.352,238825.0,0.0,idle
2026-02-19T15:17:35.762532,0.014,0.012,1.033,0.159,-0.117,-0.292,1.033,0.352,238825.0,0.0,idle
2026-02-19T15:17:35.792772,0.014,0.012,1.033,0.159,-0.117,-0.292,1.033,0.352,238825.0,0.0,idle
2026-02-19T15:17:35.823923,0.014,0.012,1.033,0.159,-0.117,-0.292,1.033,0.352,238825.0,0.0,idle
2026-02-19T15:17:35.854739,0.014,0.012,1.033,0.159,-0.117,-0.292,1.033,0.352,238825.0,0.0,idle
2026-02-19T15:17:35.876781,0.014,0.012,1.033,0.159,-0.117,-0.292,1.033,0.352,238825.0,0.0,idle
2026-02-19T15:17:35.899364,0.014,0.012,1.033,0.159,-0.117,-0.292,1.033,0.352,238825.0,0.0,idle
2026-02-19T15:17:35.930595,0.014,0.012,1.033,0.159,-0.117,-0.292,1.033,0.352,238825.0,0.0,idle
2026-02-19T15:17:35.961688,0.014,0.012,1.033,0.159,-0.117,-0.292,1.033,0.352,238825.0,0.0,idle
2026-02-19T15:17:35.993131,0.014,0.012,1.033,0.159,-0.117,-0.292,1.033,0.352,238825.0,0.0,idle
2026-02-19T15:17:36.020803,0.014,0.012,1.033,0.159,-0.117,-0.292,1.033,0.352,238825.0,0.0,idle
2026-02-19T15:17:36.048276,0.014,0.012,1.033,0.159,-0.117,-0.292,1.033,0.352,238825.0,0.0,idle
2026-02-19T15:17:36.057507,0.013,0.01,1.03,0.159,-0.117,-0.222,1.03,0.297,239155.0,0.0,idle
2026-02-19T15:17:36.094318,0.013,0.01,1.03,0.159,-0.117,-0.222,1.03,0.297,239155.0,0.0,idle
2026-02-19T15:17:36.125511,0.013,0.01,1.03,0.159,-0.117,-0.222,1.03,0.297,239155.0,0.0,idle
2026-02-19T15:17:36.156700,0.013,0.01,1.03,0.159,-0.117,-0.222,1.03,0.297,239155.0,0.0,idle
2026-02-19T15:17:36.187041,0.013,0.01,1.03,0.159,-0.117,-0.222,1.03,0.297,239155.0,0.0,idle
2026-02-19T15:17:36.206217,0.013,0.01,1.03,0.159,-0.117,-0.222,1.03,0.297,239155.0,0.0,idle
2026-02-19T15:17:36.233114,0.013,0.01,1.03,0.159,-0.117,-0.222,1.03,0.297,239155.0,0.0,idle
2026-02-19T15:17:36.264008,0.013,0.01,1.03,0.159,-0.117,-0.222,1.03,0.297,239155.0,0.0,idle
2026-02-19T15:17:36.294968,0.013,0.01,1.03,0.159,-0.117,-0.222,1.03,0.297,239155.0,0.0,idle
2026-02-19T15:17:36.327926,0.013,0.01,1.03,0.159,-0.117,-0.222,1.03,0.297,239155.0,0.0,idle
2026-02-19T15:17:36.365045,0.013,0.01,1.03,0.159,-0.117,-0.222,1.03,0.297,239155.0,0.0,idle
2026-02-19T15:17:36.387887,0.013,0.01,1.03,0.089,-0.117,-0.222,1.03,0.266,239485.0,0.0,idle
2026-02-19T15:17:36.410858,0.013,0.01,1.03,0.089,-0.117,-0.222,1.03,0.266,239485.0,0.0,idle
2026-02-19T15:17:36.442573,0.013,0.01,1.03,0.089,-0.117,-0.222,1.03,0.266,239485.0,0.0,idle
2026-02-19T15:17:36.465194,0.013,0.01,1.03,0.089,-0.117,-0.222,1.03,0.266,239485.0,0.0,idle
2026-02-19T15:17:36.497101,0.013,0.01,1.03,0.089,-0.117,-0.222,1.03,0.266,239485.0,0.0,idle
2026-02-19T15:17:36.527895,0.013,0.01,1.03,0.089,-0.117,-0.222,1.03,0.266,239485.0,0.0,idle
2026-02-19T15:17:36.563388,0.013,0.01,1.03,0.089,-0.117,-0.222,1.03,0.266,239485.0,0.0,idle
2026-02-19T15:17:36.594752,0.013,0.01,1.03,0.089,-0.117,-0.222,1.03,0.266,239485.0,0.0,idle
2026-02-19T15:17:36.627988,0.013,0.01,1.03,0.089,-0.117,-0.222,1.03,0.266,239485.0,0.0,idle
2026-02-19T15:17:36.657718,0.013,0.01,1.03,0.089,-0.117,-0.222,1.03,0.266,239485.0,0.0,idle
2026-02-19T15:17:36.680616,0.013,0.01,1.03,0.089,-0.117,-0.222,1.03,0.266,239485.0,0.0,idle
2026-02-19T15:17:36.712092,0.013,0.01,1.03,0.089,-0.117,-0.222,1.03,0.266,239485.0,0.0,idle
2026-02-19T15:17:36.747356,0.013,0.011,1.031,0.159,-0.117,-0.152,1.031,0.249,239815.0,0.0,idle
2026-02-19T15:17:36.779248,0.013,0.011,1.031,0.159,-0.117,-0.152,1.031,0.249,239815.0,0.0,idle
2026-02-19T15:17:36.808810,0.013,0.011,1.031,0.159,-0.117,-0.152,1.031,0.249,239815.0,0.0,idle
2026-02-19T15:17:36.839973,0.013,0.011,1.031,0.159,-0.117,-0.152,1.031,0.249,239815.0,0.0,idle
2026-02-19T15:17:36.864610,0.013,0.011,1.031,0.159,-0.117,-0.152,1.031,0.249,239815.0,0.0,idle
2026-02-19T15:17:36.899046,0.013,0.011,1.031,0.159,-0.117,-0.152,1.031,0.249,239815.0,0.0,idle
2026-02-19T15:17:36.926255,0.013,0.011,1.031,0.159,-0.117,-0.152,1.031,0.249,239815.0,0.0,idle
2026-02-19T15:17:36.961083,0.013,0.011,1.031,0.159,-0.117,-0.152,1.031,0.249,239815.0,0.0,idle
2026-02-19T15:17:36.987179,0.013,0.011,1.031,0.159,-0.117,-0.152,1.031,0.249,239815.0,0.0,idle
2026-02-19T15:17:37.011403,0.013,0.011,1.031,0.159,-0.117,-0.152,1.031,0.249,239815.0,0.0,idle
2026-02-19T15:17:37.042289,0.013,0.011,1.031,0.159,-0.117,-0.152,1.031,0.249,239815.0,0.0,idle
2026-02-19T15:17:37.065376,0.013,0.011,1.031,0.159,-0.117,-0.152,1.031,0.249,239815.0,0.0,idle
2026-02-19T15:17:37.076422,0.014,0.013,1.029,0.299,-0.117,-0.222,1.029,0.39,240145.0,0.0,idle
2026-02-19T15:17:37.112113,0.014,0.013,1.029,0.299,-0.117,-0.222,1.029,0.39,240145.0,0.0,idle
2026-02-19T15:17:37.143738,0.014,0.013,1.029,0.299,-0.117,-0.222,1.029,0.39,240145.0,0.0,idle
2026-02-19T15:17:37.176530,0.014,0.013,1.029,0.299,-0.117,-0.222,1.029,0.39,240145.0,0.0,idle
2026-02-19T15:17:37.197729,0.014,0.013,1.029,0.299,-0.117,-0.222,1.029,0.39,240145.0,0.0,idle
2026-02-19T15:17:37.222933,0.014,0.013,1.029,0.299,-0.117,-0.222,1.029,0.39,240145.0,0.0,idle
2026-02-19T15:17:37.254528,0.014,0.013,1.029,0.299,-0.117,-0.222,1.029,0.39,240145.0,0.0,idle
2026-02-19T15:17:37.280132,0.014,0.013,1.029,0.299,-0.117,-0.222,1.029,0.39,240145.0,0.0,idle
2026-02-19T15:17:37.310910,0.014,0.013,1.029,0.299,-0.117,-0.222,1.029,0.39,240145.0,0.0,idle
2026-02-19T15:17:37.342388,0.014,0.013,1.029,0.299,-0.117,-0.222,1.029,0.39,240145.0,0.0,idle
2026-02-19T15:17:37.376526,0.014,0.013,1.029,0.299,-0.117,-0.222,1.029,0.39,240145.0,0.0,idle
2026-02-19T15:17:37.412437,0.013,0.011,1.03,0.159,-0.047,-0.152,1.03,0.225,240475.0,0.0,idle
2026-02-19T15:17:37.443292,0.013,0.011,1.03,0.159,-0.047,-0.152,1.03,0.225,240475.0,0.0,idle
2026-02-19T15:17:37.474870,0.013,0.011,1.03,0.159,-0.047,-0.152,1.03,0.225,240475.0,0.0,idle
2026-02-19T15:17:37.509606,0.013,0.011,1.03,0.159,-0.047,-0.152,1.03,0.225,240475.0,0.0,idle
2026-02-19T15:17:37.544226,0.013,0.011,1.03,0.159,-0.047,-0.152,1.03,0.225,240475.0,0.0,idle
2026-02-19T15:17:37.566899,0.013,0.011,1.03,0.159,-0.047,-0.152,1.03,0.225,240475.0,0.0,idle
2026-02-19T15:17:37.587307,0.013,0.011,1.03,0.159,-0.047,-0.152,1.03,0.225,240475.0,0.0,idle
2026-02-19T15:17:37.612583,0.013,0.011,1.03,0.159,-0.047,-0.152,1.03,0.225,240475.0,0.0,idle
2026-02-19T15:17:37.645814,0.013,0.011,1.03,0.159,-0.047,-0.152,1.03,0.225,240475.0,0.0,idle
2026-02-19T15:17:37.676454,0.013,0.011,1.03,0.159,-0.047,-0.152,1.03,0.225,240475.0,0.0,idle
2026-02-19T15:17:37.698696,0.013,0.011,1.03,0.159,-0.047,-0.152,1.03,0.225,240475.0,0.0,idle
2026-02-19T15:17:37.730289,0.012,0.011,1.031,0.229,-0.117,-0.222,1.031,0.339,240805.0,0.0,idle
2026-02-19T15:17:37.761163,0.012,0.011,1.031,0.229,-0.117,-0.222,1.031,0.339,240805.0,0.0,idle
2026-02-19T15:17:37.792215,0.012,0.011,1.031,0.229,-0.117,-0.222,1.031,0.339,240805.0,0.0,idle
2026-02-19T15:17:37.823211,0.012,0.011,1.031,0.229,-0.117,-0.222,1.031,0.339,240805.0,0.0,idle
