timestamp,AX,AY,AZ,GX,GY,GZ,ASVM,GSVM,label
2026-01-29T15:58:27.685650,0,0,0,0,0,0,0,0,idle
2026-01-29T15:58:27.697347,0.036,0.019,1.04,0.089,0.023,-0.222,1.041,0.24,idle
2026-01-29T15:58:27.725641,0.036,0.019,1.04,0.089,0.023,-0.222,1.041,0.24,idle
2026-01-29T15:58:27.757874,0.036,0.019,1.04,0.089,0.023,-0.222,1.041,0.24,idle
2026-01-29T15:58:27.780810,0.036,0.019,1.04,0.089,0.023,-0.222,1.041,0.24,idle
2026-01-29T15:58:27.799815,0.036,0.019,1.04,0.089,0.023,-0.222,1.041,0.24,idle
2026-01-29T15:58:27.823176,0.036,0.019,1.04,0.089,0.023,-0.222,1.041,0.24,idle
2026-01-29T15:58:27.850119,0.036,0.019,1.04,0.089,0.023,-0.222,1.041,0.24,idle
2026-01-29T15:58:27.867509,0.036,0.019,1.04,0.089,0.023,-0.222,1.041,0.24,idle
2026-01-29T15:58:27.898583,0.036,0.019,1.04,0.089,0.023,-0.222,1.041,0.24,idle
2026-01-29T15:58:27.923318,0.036,0.019,1.04,0.089,0.023,-0.222,1.041,0.24,idle
2026-01-29T15:58:27.957760,0.035,0.022,1.04,-0.121,0.023,-0.152,1.041,0.195,idle
2026-01-29T15:58:27.982978,0.035,0.022,1.04,-0.121,0.023,-0.152,1.041,0.195,idle
2026-01-29T15:58:28.013123,0.035,0.022,1.04,-0.121,0.023,-0.152,1.041,0.195,idle
2026-01-29T15:58:28.045246,0.035,0.022,1.04,-0.121,0.023,-0.152,1.041,0.195,idle
2026-01-29T15:58:28.075066,0.035,0.022,1.04,-0.121,0.023,-0.152,1.041,0.195,idle
2026-01-29T15:58:28.106576,0.035,0.022,1.04,-0.121,0.023,-0.152,1.041,0.195,idle
2026-01-29T15:58:28.138964,0.035,0.022,1.04,-0.121,0.023,-0.152,1.041,0.195,idle
2026-01-29T15:58:28.166195,0.035,0.022,1.04,-0.121,0.023,-0.152,1.041,0.195,idle
2026-01-29T15:58:28.189498,0.035,0.022,1.04,-0.121,0.023,-0.152,1.041,0.195,idle
2026-01-29T15:58:28.220677,0.035,0.022,1.04,-0.121,0.023,-0.152,1.041,0.195,idle
2026-01-29T15:58:28.244953,0.035,0.022,1.04,-0.121,0.023,-0.152,1.041,0.195,idle
2026-01-29T15:58:28.275347,0.035,0.022,1.04,-0.121,0.023,-0.152,1.041,0.195,idle
2026-01-29T15:58:28.305691,0.035,0.022,1.04,-0.121,0.023,-0.152,1.041,0.195,idle
2026-01-29T15:58:28.329665,0.035,0.022,1.04,-0.121,0.023,-0.152,1.041,0.195,idle
2026-01-29T15:58:28.360725,0.035,0.022,1.04,-0.121,0.023,-0.152,1.041,0.195,idle
2026-01-29T15:58:28.390635,0.035,0.022,1.04,-0.121,0.023,-0.152,1.041,0.195,idle
2026-01-29T15:58:28.422869,0.035,0.022,1.04,-0.121,0.023,-0.152,1.041,0.195,idle
2026-01-29T15:58:28.449738,0.035,0.022,1.04,-0.121,0.023,-0.152,1.041,0.195,idle
2026-01-29T15:58:28.467245,0.035,0.022,1.04,-0.121,0.023,-0.152,1.041,0.195,idle
2026-01-29T15:58:28.497825,0.035,0.022,1.04,-0.121,0.023,-0.152,1.041,0.195,idle
2026-01-29T15:58:28.521942,0.035,0.022,1.04,-0.121,0.023,-0.152,1.041,0.195,idle
2026-01-29T15:58:28.547966,0.035,0.022,1.04,-0.121,0.023,-0.152,1.041,0.195,idle
2026-01-29T15:58:28.574310,0.035,0.022,1.04,-0.121,0.023,-0.152,1.041,0.195,idle
2026-01-29T15:58:28.584570,0.036,0.022,1.043,-0.051,0.093,-0.152,1.044,0.185,idle
2026-01-29T15:58:28.615792,0.036,0.022,1.043,-0.051,0.093,-0.152,1.044,0.185,idle
2026-01-29T15:58:28.647415,0.036,0.022,1.043,-0.051,0.093,-0.152,1.044,0.185,idle
2026-01-29T15:58:28.679548,0.036,0.022,1.043,-0.051,0.093,-0.152,1.044,0.185,idle
2026-01-29T15:58:28.712304,0.036,0.022,1.043,-0.051,0.093,-0.152,1.044,0.185,idle
2026-01-29T15:58:28.743955,0.036,0.022,1.043,-0.051,0.093,-0.152,1.044,0.185,idle
2026-01-29T15:58:28.774065,0.036,0.022,1.043,-0.051,0.093,-0.152,1.044,0.185,idle
2026-01-29T15:58:28.814882,0.036,0.022,1.043,-0.051,0.093,-0.152,1.044,0.185,idle
2026-01-29T15:58:28.845882,0.036,0.022,1.043,-0.051,0.093,-0.152,1.044,0.185,idle
2026-01-29T15:58:28.878636,0.036,0.022,1.043,-0.051,0.093,-0.152,1.044,0.185,idle
2026-01-29T15:58:28.911850,0.036,0.022,1.043,-0.051,0.093,-0.152,1.044,0.185,idle
2026-01-29T15:58:28.947600,0.036,0.022,1.043,-0.051,0.093,-0.152,1.044,0.185,idle
2026-01-29T15:58:28.977149,0.036,0.022,1.043,-0.051,0.093,-0.152,1.044,0.185,idle
2026-01-29T15:58:29.010718,0.036,0.022,1.043,-0.051,0.093,-0.152,1.044,0.185,idle
2026-01-29T15:58:29.042253,0.036,0.022,1.043,-0.051,0.093,-0.152,1.044,0.185,idle
2026-01-29T15:58:29.081680,0.036,0.022,1.043,-0.051,0.093,-0.152,1.044,0.185,idle
2026-01-29T15:58:29.113654,0.036,0.022,1.043,-0.051,0.093,-0.152,1.044,0.185,idle
2026-01-29T15:58:29.126275,0.036,0.022,1.043,-0.051,0.093,-0.152,1.044,0.185,idle
2026-01-29T15:58:29.158725,0.036,0.022,1.043,-0.051,0.093,-0.152,1.044,0.185,idle
2026-01-29T15:58:29.186388,0.036,0.022,1.043,-0.051,0.093,-0.152,1.044,0.185,idle
2026-01-29T15:58:29.214266,0.036,0.022,1.043,-0.051,0.093,-0.152,1.044,0.185,idle
2026-01-29T15:58:29.252602,0.038,0.021,1.042,0.089,0.093,-0.152,1.043,0.199,idle
2026-01-29T15:58:29.278529,0.038,0.021,1.042,0.089,0.093,-0.152,1.043,0.199,idle
2026-01-29T15:58:29.310433,0.038,0.021,1.042,0.089,0.093,-0.152,1.043,0.199,idle
2026-01-29T15:58:29.332320,0.038,0.021,1.042,0.089,0.093,-0.152,1.043,0.199,idle
2026-01-29T15:58:29.365476,0.038,0.021,1.042,0.089,0.093,-0.152,1.043,0.199,idle
2026-01-29T15:58:29.397031,0.038,0.021,1.042,0.089,0.093,-0.152,1.043,0.199,idle
2026-01-29T15:58:29.428603,0.038,0.021,1.042,0.089,0.093,-0.152,1.043,0.199,idle
2026-01-29T15:58:29.460274,0.038,0.021,1.042,0.089,0.093,-0.152,1.043,0.199,idle
2026-01-29T15:58:29.492203,0.038,0.021,1.042,0.089,0.093,-0.152,1.043,0.199,idle
2026-01-29T15:58:29.524174,0.038,0.021,1.042,0.089,0.093,-0.152,1.043,0.199,idle
2026-01-29T15:58:29.551187,0.038,0.021,1.042,0.089,0.093,-0.152,1.043,0.199,idle
2026-01-29T15:58:29.577591,0.038,0.021,1.042,0.089,0.093,-0.152,1.043,0.199,idle
2026-01-29T15:58:29.608908,0.038,0.021,1.042,0.089,0.093,-0.152,1.043,0.199,idle
2026-01-29T15:58:29.640599,0.038,0.021,1.042,0.089,0.093,-0.152,1.043,0.199,idle
2026-01-29T15:58:29.682013,0.038,0.021,1.042,0.089,0.093,-0.152,1.043,0.199,idle
2026-01-29T15:58:29.713404,0.038,0.021,1.042,0.089,0.093,-0.152,1.043,0.199,idle
2026-01-29T15:58:29.745267,0.038,0.021,1.042,0.089,0.093,-0.152,1.043,0.199,idle
2026-01-29T15:58:29.776993,0.038,0.021,1.042,0.089,0.093,-0.152,1.043,0.199,idle
2026-01-29T15:58:29.798597,0.038,0.021,1.042,0.089,0.093,-0.152,1.043,0.199,idle
2026-01-29T15:58:29.830230,0.038,0.021,1.042,0.089,0.093,-0.152,1.043,0.199,idle
2026-01-29T15:58:29.843153,0.038,0.021,1.042,0.089,0.093,-0.152,1.043,0.199,idle
2026-01-29T15:58:29.864695,0.038,0.021,1.042,0.089,0.093,-0.152,1.043,0.199,idle
2026-01-29T15:58:29.894148,0.038,0.021,1.042,0.089,0.093,-0.152,1.043,0.199,idle
2026-01-29T15:58:29.904574,0.065,-0.049,1.064,0.579,0.163,-27.942,1.067,27.948,idle
2026-01-29T15:58:29.946450,0.065,-0.049,1.064,0.579,0.163,-27.942,1.067,27.948,idle
2026-01-29T15:58:29.976135,0.065,-0.049,1.064,0.579,0.163,-27.942,1.067,27.948,idle
2026-01-29T15:58:29.998984,0.065,-0.049,1.064,0.579,0.163,-27.942,1.067,27.948,idle
2026-01-29T15:58:30.031463,0.065,-0.049,1.064,0.579,0.163,-27.942,1.067,27.948,idle
2026-01-29T15:58:30.063839,0.065,-0.049,1.064,0.579,0.163,-27.942,1.067,27.948,idle
2026-01-29T15:58:30.091134,0.065,-0.049,1.064,0.579,0.163,-27.942,1.067,27.948,idle
2026-01-29T15:58:30.124467,0.065,-0.049,1.064,0.579,0.163,-27.942,1.067,27.948,idle
2026-01-29T15:58:30.165265,0.065,-0.049,1.064,0.579,0.163,-27.942,1.067,27.948,idle
2026-01-29T15:58:30.198078,0.065,-0.049,1.064,0.579,0.163,-27.942,1.067,27.948,idle
2026-01-29T15:58:30.230164,0.065,-0.049,1.064,0.579,0.163,-27.942,1.067,27.948,idle
2026-01-29T15:58:30.262914,0.065,-0.049,1.064,0.579,0.163,-27.942,1.067,27.948,idle
2026-01-29T15:58:30.295303,0.065,-0.049,1.064,0.579,0.163,-27.942,1.067,27.948,idle
2026-01-29T15:58:30.327483,0.065,-0.049,1.064,0.579,0.163,-27.942,1.067,27.948,idle
2026-01-29T15:58:30.360081,0.065,-0.049,1.064,0.579,0.163,-27.942,1.067,27.948,idle
2026-01-29T15:58:30.392154,0.065,-0.049,1.064,0.579,0.163,-27.942,1.067,27.948,idle
2026-01-29T15:58:30.424008,0.065,-0.049,1.064,0.579,0.163,-27.942,1.067,27.948,idle
2026-01-29T15:58:30.447557,0.065,-0.049,1.064,0.579,0.163,-27.942,1.067,27.948,idle
2026-01-29T15:58:30.476148,0.065,-0.049,1.064,0.579,0.163,-27.942,1.067,27.948,idle
2026-01-29T15:58:30.502501,0.065,-0.049,1.064,0.579,0.163,-27.942,1.067,27.948,idle
2026-01-29T15:58:30.529393,0.065,-0.049,1.064,0.579,0.163,-27.942,1.067,27.948,idle
2026-01-29T15:58:30.560513,0.065,-0.049,1.064,0.579,0.163,-27.942,1.067,27.948,idle
2026-01-29T15:58:30.592390,0.065,-0.049,1.064,0.579,0.163,-27.942,1.067,27.948,idle
2026-01-29T15:58:30.624553,0.065,-0.049,1.064,0.579,0.163,-27.942,1.067,27.948,idle
2026-01-29T15:58:30.664723,0.05,-0.314,0.87,49.229,-11.177,-1.482,0.926,50.504,idle
2026-01-29T15:58:30.696845,0.05,-0.314,0.87,49.229,-11.177,-1.482,0.926,50.504,idle
2026-01-29T15:58:30.725371,0.05,-0.314,0.87,49.229,-11.177,-1.482,0.926,50.504,idle
2026-01-29T15:58:30.746658,0.05,-0.314,0.87,49.229,-11.177,-1.482,0.926,50.504,idle
2026-01-29T15:58:30.772919,0.05,-0.314,0.87,49.229,-11.177,-1.482,0.926,50.504,idle
2026-01-29T15:58:30.798652,0.05,-0.314,0.87,49.229,-11.177,-1.482,0.926,50.504,idle
2026-01-29T15:58:30.823049,0.05,-0.314,0.87,49.229,-11.177,-1.482,0.926,50.504,idle
2026-01-29T15:58:30.851729,0.05,-0.314,0.87,49.229,-11.177,-1.482,0.926,50.504,idle
2026-01-29T15:58:30.875428,0.05,-0.314,0.87,49.229,-11.177,-1.482,0.926,50.504,idle
2026-01-29T15:58:30.907556,0.05,-0.314,0.87,49.229,-11.177,-1.482,0.926,50.504,idle
2026-01-29T15:58:30.947922,0.05,-0.314,0.87,49.229,-11.177,-1.482,0.926,50.504,idle
2026-01-29T15:58:30.979729,0.05,-0.314,0.87,49.229,-11.177,-1.482,0.926,50.504,idle
2026-01-29T15:58:31.013957,0.05,-0.314,0.87,49.229,-11.177,-1.482,0.926,50.504,idle
2026-01-29T15:58:31.041005,0.05,-0.314,0.87,49.229,-11.177,-1.482,0.926,50.504,idle
2026-01-29T15:58:31.064600,0.05,-0.314,0.87,49.229,-11.177,-1.482,0.926,50.504,idle
2026-01-29T15:58:31.096116,0.05,-0.314,0.87,49.229,-11.177,-1.482,0.926,50.504,idle
2026-01-29T15:58:31.123052,0.05,-0.314,0.87,49.229,-11.177,-1.482,0.926,50.504,idle
2026-01-29T15:58:31.146779,0.05,-0.314,0.87,49.229,-11.177,-1.482,0.926,50.504,idle
2026-01-29T15:58:31.165107,0.05,-0.314,0.87,49.229,-11.177,-1.482,0.926,50.504,idle
2026-01-29T15:58:31.196775,0.05,-0.314,0.87,49.229,-11.177,-1.482,0.926,50.504,idle
2026-01-29T15:58:31.219176,0.05,-0.314,0.87,49.229,-11.177,-1.482,0.926,50.504,idle
2026-01-29T15:58:31.248414,0.05,-0.314,0.87,49.229,-11.177,-1.482,0.926,50.504,idle
2026-01-29T15:58:31.281455,0.05,-0.314,0.87,49.229,-11.177,-1.482,0.926,50.504,idle
2026-01-29T15:58:31.286565,0.116,0.096,1.031,65.189,4.503,-0.712,1.042,65.348,idle
2026-01-29T15:58:31.311423,0.116,0.096,1.031,65.189,4.503,-0.712,1.042,65.348,idle
2026-01-29T15:58:31.342527,0.116,0.096,1.031,65.189,4.503,-0.712,1.042,65.348,idle
2026-01-29T15:58:31.364698,0.116,0.096,1.031,65.189,4.503,-0.712,1.042,65.348,idle
2026-01-29T15:58:31.395969,0.116,0.096,1.031,65.189,4.503,-0.712,1.042,65.348,idle
2026-01-29T15:58:31.427346,0.116,0.096,1.031,65.189,4.503,-0.712,1.042,65.348,idle
2026-01-29T15:58:31.458512,0.116,0.096,1.031,65.189,4.503,-0.712,1.042,65.348,idle
2026-01-29T15:58:31.487464,0.116,0.096,1.031,65.189,4.503,-0.712,1.042,65.348,idle
2026-01-29T15:58:31.510858,0.116,0.096,1.031,65.189,4.503,-0.712,1.042,65.348,idle
2026-01-29T15:58:31.542017,0.116,0.096,1.031,65.189,4.503,-0.712,1.042,65.348,idle
2026-01-29T15:58:31.574358,0.116,0.096,1.031,65.189,4.503,-0.712,1.042,65.348,idle
2026-01-29T15:58:31.605660,0.116,0.096,1.031,65.189,4.503,-0.712,1.042,65.348,idle
2026-01-29T15:58:31.647782,0.116,0.096,1.031,65.189,4.503,-0.712,1.042,65.348,idle
2026-01-29T15:58:31.679506,0.116,0.096,1.031,65.189,4.503,-0.712,1.042,65.348,idle
2026-01-29T15:58:31.711076,0.116,0.096,1.031,65.189,4.503,-0.712,1.042,65.348,idle
2026-01-29T15:58:31.741969,0.116,0.096,1.031,65.189,4.503,-0.712,1.042,65.348,idle
2026-01-29T15:58:31.773844,0.116,0.096,1.031,65.189,4.503,-0.712,1.042,65.348,idle
2026-01-29T15:58:31.814569,0.116,0.096,1.031,65.189,4.503,-0.712,1.042,65.348,idle
2026-01-29T15:58:31.826771,0.116,0.096,1.031,65.189,4.503,-0.712,1.042,65.348,idle
2026-01-29T15:58:31.848112,0.116,0.096,1.031,65.189,4.503,-0.712,1.042,65.348,idle
2026-01-29T15:58:31.879295,0.116,0.096,1.031,65.189,4.503,-0.712,1.042,65.348,idle
2026-01-29T15:58:31.883283,0.116,0.096,1.031,65.189,4.503,-0.712,1.042,65.348,idle
2026-01-29T15:58:31.914883,0.116,0.096,1.031,65.189,4.503,-0.712,1.042,65.348,idle
2026-01-29T15:58:31.947217,0.116,0.096,1.031,65.189,4.503,-0.712,1.042,65.348,idle
2026-01-29T15:58:31.980802,0.116,0.096,1.031,65.189,4.503,-0.712,1.042,65.348,idle
2026-01-29T15:58:32.003170,0.103,0.345,0.98,-1.661,-0.467,-0.922,1.044,1.956,idle
2026-01-29T15:58:32.030956,0.103,0.345,0.98,-1.661,-0.467,-0.922,1.044,1.956,idle
2026-01-29T15:58:32.063728,0.103,0.345,0.98,-1.661,-0.467,-0.922,1.044,1.956,idle
2026-01-29T15:58:32.089560,0.103,0.345,0.98,-1.661,-0.467,-0.922,1.044,1.956,idle
2026-01-29T15:58:32.114215,0.103,0.345,0.98,-1.661,-0.467,-0.922,1.044,1.956,idle
2026-01-29T15:58:32.139229,0.103,0.345,0.98,-1.661,-0.467,-0.922,1.044,1.956,idle
2026-01-29T15:58:32.166291,0.103,0.345,0.98,-1.661,-0.467,-0.922,1.044,1.956,idle
2026-01-29T15:58:32.190318,0.103,0.345,0.98,-1.661,-0.467,-0.922,1.044,1.956,idle
2026-01-29T15:58:32.213069,0.103,0.345,0.98,-1.661,-0.467,-0.922,1.044,1.956,idle
2026-01-29T15:58:32.244502,0.103,0.345,0.98,-1.661,-0.467,-0.922,1.044,1.956,idle
2026-01-29T15:58:32.276209,0.103,0.345,0.98,-1.661,-0.467,-0.922,1.044,1.956,idle
2026-01-29T15:58:32.308328,0.103,0.345,0.98,-1.661,-0.467,-0.922,1.044,1.956,idle
2026-01-29T15:58:32.340372,0.103,0.345,0.98,-1.661,-0.467,-0.922,1.044,1.956,idle
2026-01-29T15:58:32.368586,0.103,0.345,0.98,-1.661,-0.467,-0.922,1.044,1.956,idle
2026-01-29T15:58:32.391292,0.103,0.345,0.98,-1.661,-0.467,-0.922,1.044,1.956,idle
2026-01-29T15:58:32.413011,0.103,0.345,0.98,-1.661,-0.467,-0.922,1.044,1.956,idle
2026-01-29T15:58:32.442261,0.103,0.345,0.98,-1.661,-0.467,-0.922,1.044,1.956,idle
2026-01-29T15:58:32.467657,0.103,0.345,0.98,-1.661,-0.467,-0.922,1.044,1.956,idle
2026-01-29T15:58:32.499400,0.103,0.345,0.98,-1.661,-0.467,-0.922,1.044,1.956,idle
2026-01-29T15:58:32.528965,0.103,0.345,0.98,-1.661,-0.467,-0.922,1.044,1.956,idle
2026-01-29T15:58:32.548747,0.103,0.345,0.98,-1.661,-0.467,-0.922,1.044,1.956,idle
2026-01-29T15:58:32.581372,0.103,0.345,0.98,-1.661,-0.467,-0.922,1.044,1.956,idle
2026-01-29T15:58:32.603928,0.103,0.345,0.98,-1.661,-0.467,-0.922,1.044,1.956,idle
2026-01-29T15:58:32.631398,0.103,0.345,0.98,-1.661,-0.467,-0.922,1.044,1.956,idle
2026-01-29T15:58:32.663828,0.103,0.345,0.98,-1.661,-0.467,-0.922,1.044,1.956,idle
2026-01-29T15:58:32.692214,0.126,-0.096,1.22,-1.311,1.913,2.718,1.23,3.573,idle
2026-01-29T15:58:32.729330,0.126,-0.096,1.22,-1.311,1.913,2.718,1.23,3.573,idle
2026-01-29T15:58:32.760997,0.126,-0.096,1.22,-1.311,1.913,2.718,1.23,3.573,idle
2026-01-29T15:58:32.789909,0.126,-0.096,1.22,-1.311,1.913,2.718,1.23,3.573,idle
2026-01-29T15:58:32.816224,0.126,-0.096,1.22,-1.311,1.913,2.718,1.23,3.573,idle
2026-01-29T15:58:32.847624,0.126,-0.096,1.22,-1.311,1.913,2.718,1.23,3.573,idle
2026-01-29T15:58:32.879649,0.126,-0.096,1.22,-1.311,1.913,2.718,1.23,3.573,idle
2026-01-29T15:58:32.910917,0.126,-0.096,1.22,-1.311,1.913,2.718,1.23,3.573,idle
2026-01-29T15:58:32.944303,0.126,-0.096,1.22,-1.311,1.913,2.718,1.23,3.573,idle
2026-01-29T15:58:32.980744,0.126,-0.096,1.22,-1.311,1.913,2.718,1.23,3.573,idle
2026-01-29T15:58:33.007024,0.126,-0.096,1.22,-1.311,1.913,2.718,1.23,3.573,idle
2026-01-29T15:58:33.047985,0.126,-0.096,1.22,-1.311,1.913,2.718,1.23,3.573,idle
2026-01-29T15:58:33.080893,0.126,-0.096,1.22,-1.311,1.913,2.718,1.23,3.573,idle
2026-01-29T15:58:33.114517,0.126,-0.096,1.22,-1.311,1.913,2.718,1.23,3.573,idle
2026-01-29T15:58:33.147041,0.126,-0.096,1.22,-1.311,1.913,2.718,1.23,3.573,idle
2026-01-29T15:58:33.175966,0.126,-0.096,1.22,-1.311,1.913,2.718,1.23,3.573,idle
2026-01-29T15:58:33.203631,0.126,-0.096,1.22,-1.311,1.913,2.718,1.23,3.573,idle
2026-01-29T15:58:33.238735,0.126,-0.096,1.22,-1.311,1.913,2.718,1.23,3.573,idle
2026-01-29T15:58:33.280938,0.126,-0.096,1.22,-1.311,1.913,2.718,1.23,3.573,idle
2026-01-29T15:58:33.296820,0.126,-0.096,1.22,-1.311,1.913,2.718,1.23,3.573,idle
2026-01-29T15:58:33.322667,0.126,-0.096,1.22,-1.311,1.913,2.718,1.23,3.573,idle
2026-01-29T15:58:33.353886,0.126,-0.096,1.22,-1.311,1.913,2.718,1.23,3.573,idle
2026-01-29T15:58:33.380054,0.126,-0.096,1.22,-1.311,1.913,2.718,1.23,3.573,idle
2026-01-29T15:58:33.413323,0.037,-0.518,0.888,-11.601,-2.217,0.968,1.028,11.851,idle
2026-01-29T15:58:33.447892,0.037,-0.518,0.888,-11.601,-2.217,0.968,1.028,11.851,idle
2026-01-29T15:58:33.480649,0.037,-0.518,0.888,-11.601,-2.217,0.968,1.028,11.851,idle
2026-01-29T15:58:33.512416,0.037,-0.518,0.888,-11.601,-2.217,0.968,1.028,11.851,idle
2026-01-29T15:58:33.545745,0.037,-0.518,0.888,-11.601,-2.217,0.968,1.028,11.851,idle
2026-01-29T15:58:33.577602,0.037,-0.518,0.888,-11.601,-2.217,0.968,1.028,11.851,idle
2026-01-29T15:58:33.609753,0.037,-0.518,0.888,-11.601,-2.217,0.968,1.028,11.851,idle
2026-01-29T15:58:33.641715,0.037,-0.518,0.888,-11.601,-2.217,0.968,1.028,11.851,idle
2026-01-29T15:58:33.673040,0.037,-0.518,0.888,-11.601,-2.217,0.968,1.028,11.851,idle
2026-01-29T15:58:33.704002,0.037,-0.518,0.888,-11.601,-2.217,0.968,1.028,11.851,idle
2026-01-29T15:58:33.725298,0.037,-0.518,0.888,-11.601,-2.217,0.968,1.028,11.851,idle
2026-01-29T15:58:33.756978,0.037,-0.518,0.888,-11.601,-2.217,0.968,1.028,11.851,idle
2026-01-29T15:58:33.794700,0.037,-0.518,0.888,-11.601,-2.217,0.968,1.028,11.851,idle
2026-01-29T15:58:33.828056,0.037,-0.518,0.888,-11.601,-2.217,0.968,1.028,11.851,idle
2026-01-29T15:58:33.859497,0.037,-0.518,0.888,-11.601,-2.217,0.968,1.028,11.851,idle
2026-01-29T15:58:33.893352,0.037,-0.518,0.888,-11.601,-2.217,0.968,1.028,11.851,idle
2026-01-29T15:58:33.926403,0.037,-0.518,0.888,-11.601,-2.217,0.968,1.028,11.851,idle
2026-01-29T15:58:33.957836,0.037,-0.518,0.888,-11.601,-2.217,0.968,1.028,11.851,idle
2026-01-29T15:58:33.990042,0.037,-0.518,0.888,-11.601,-2.217,0.968,1.028,11.851,idle
2026-01-29T15:58:34.016846,0.037,-0.518,0.888,-11.601,-2.217,0.968,1.028,11.851,idle
2026-01-29T15:58:34.043521,0.037,-0.518,0.888,-11.601,-2.217,0.968,1.028,11.851,idle
2026-01-29T15:58:34.075386,0.037,-0.518,0.888,-11.601,-2.217,0.968,1.028,11.851,idle
2026-01-29T15:58:34.107039,0.037,-0.518,0.888,-11.601,-2.217,0.968,1.028,11.851,idle
2026-01-29T15:58:34.134728,0.067,-0.358,0.983,-31.131,-6.347,0.198,1.049,31.772,idle
2026-01-29T15:58:34.157645,0.067,-0.358,0.983,-31.131,-6.347,0.198,1.049,31.772,idle
2026-01-29T15:58:34.180438,0.067,-0.358,0.983,-31.131,-6.347,0.198,1.049,31.772,idle
2026-01-29T15:58:34.212484,0.067,-0.358,0.983,-31.131,-6.347,0.198,1.049,31.772,idle
2026-01-29T15:58:34.247240,0.067,-0.358,0.983,-31.131,-6.347,0.198,1.049,31.772,idle
2026-01-29T15:58:34.275393,0.067,-0.358,0.983,-31.131,-6.347,0.198,1.049,31.772,idle
2026-01-29T15:58:34.307623,0.067,-0.358,0.983,-31.131,-6.347,0.198,1.049,31.772,idle
2026-01-29T15:58:34.329077,0.067,-0.358,0.983,-31.131,-6.347,0.198,1.049,31.772,idle
2026-01-29T15:58:34.360665,0.067,-0.358,0.983,-31.131,-6.347,0.198,1.049,31.772,idle
2026-01-29T15:58:34.396417,0.067,-0.358,0.983,-31.131,-6.347,0.198,1.049,31.772,idle
2026-01-29T15:58:34.426353,0.067,-0.358,0.983,-31.131,-6.347,0.198,1.049,31.772,idle
2026-01-29T15:58:34.447355,0.067,-0.358,0.983,-31.131,-6.347,0.198,1.049,31.772,idle
2026-01-29T15:58:34.480736,0.067,-0.358,0.983,-31.131,-6.347,0.198,1.049,31.772,idle
2026-01-29T15:58:34.512927,0.067,-0.358,0.983,-31.131,-6.347,0.198,1.049,31.772,idle
2026-01-29T15:58:34.545281,0.067,-0.358,0.983,-31.131,-6.347,0.198,1.049,31.772,idle
2026-01-29T15:58:34.576768,0.067,-0.358,0.983,-31.131,-6.347,0.198,1.049,31.772,idle
2026-01-29T15:58:34.613731,0.067,-0.358,0.983,-31.131,-6.347,0.198,1.049,31.772,idle
2026-01-29T15:58:34.640468,0.067,-0.358,0.983,-31.131,-6.347,0.198,1.049,31.772,idle
2026-01-29T15:58:34.672077,0.067,-0.358,0.983,-31.131,-6.347,0.198,1.049,31.772,idle
2026-01-29T15:58:34.707747,0.067,-0.358,0.983,-31.131,-6.347,0.198,1.049,31.772,idle
2026-01-29T15:58:34.734927,0.067,-0.358,0.983,-31.131,-6.347,0.198,1.049,31.772,idle
2026-01-29T15:58:34.756261,0.067,-0.358,0.983,-31.131,-6.347,0.198,1.049,31.772,idle
2026-01-29T15:58:34.780684,0.067,-0.358,0.983,-31.131,-6.347,0.198,1.049,31.772,idle
2026-01-29T15:58:34.798893,0.067,-0.358,0.983,-31.131,-6.347,0.198,1.049,31.772,idle
2026-01-29T15:58:34.830632,0.067,-0.358,0.983,-31.131,-6.347,0.198,1.049,31.772,idle
2026-01-29T15:58:34.852981,0.085,-0.126,1.11,-0.961,-10.407,3.418,1.12,10.996,idle
2026-01-29T15:58:34.880858,0.085,-0.126,1.11,-0.961,-10.407,3.418,1.12,10.996,idle
2026-01-29T15:58:34.913747,0.085,-0.126,1.11,-0.961,-10.407,3.418,1.12,10.996,idle
2026-01-29T15:58:34.945652,0.085,-0.126,1.11,-0.961,-10.407,3.418,1.12,10.996,idle
2026-01-29T15:58:34.979073,0.085,-0.126,1.11,-0.961,-10.407,3.418,1.12,10.996,idle
2026-01-29T15:58:35.010300,0.085,-0.126,1.11,-0.961,-10.407,3.418,1.12,10.996,idle
2026-01-29T15:58:35.042203,0.085,-0.126,1.11,-0.961,-10.407,3.418,1.12,10.996,idle
2026-01-29T15:58:35.064368,0.085,-0.126,1.11,-0.961,-10.407,3.418,1.12,10.996,idle
2026-01-29T15:58:35.097136,0.085,-0.126,1.11,-0.961,-10.407,3.418,1.12,10.996,idle
2026-01-29T15:58:35.130332,0.085,-0.126,1.11,-0.961,-10.407,3.418,1.12,10.996,idle
2026-01-29T15:58:35.160955,0.085,-0.126,1.11,-0.961,-10.407,3.418,1.12,10.996,idle
2026-01-29T15:58:35.193172,0.085,-0.126,1.11,-0.961,-10.407,3.418,1.12,10.996,idle
2026-01-29T15:58:35.231087,0.085,-0.126,1.11,-0.961,-10.407,3.418,1.12,10.996,idle
2026-01-29T15:58:35.256958,0.085,-0.126,1.11,-0.961,-10.407,3.418,1.12,10.996,idle
2026-01-29T15:58:35.296559,0.085,-0.126,1.11,-0.961,-10.407,3.418,1.12,10.996,idle
2026-01-29T15:58:35.328400,0.085,-0.126,1.11,-0.961,-10.407,3.418,1.12,10.996,idle
2026-01-29T15:58:35.362489,0.085,-0.126,1.11,-0.961,-10.407,3.418,1.12,10.996,idle
2026-01-29T15:58:35.394107,0.085,-0.126,1.11,-0.961,-10.407,3.418,1.12,10.996,idle
2026-01-29T15:58:35.396349,0.085,-0.126,1.11,-0.961,-10.407,3.418,1.12,10.996,idle
2026-01-29T15:58:35.426331,0.085,-0.126,1.11,-0.961,-10.407,3.418,1.12,10.996,idle
2026-01-29T15:58:35.457862,0.085,-0.126,1.11,-0.961,-10.407,3.418,1.12,10.996,idle
2026-01-29T15:58:35.489882,0.085,-0.126,1.11,-0.961,-10.407,3.418,1.12,10.996,idle
2026-01-29T15:58:35.516893,-0.025,-0.071,1.142,2.469,-5.717,7.548,1.144,9.786,idle
2026-01-29T15:58:35.540254,-0.025,-0.071,1.142,2.469,-5.717,7.548,1.144,9.786,idle
2026-01-29T15:58:35.563425,-0.025,-0.071,1.142,2.469,-5.717,7.548,1.144,9.786,idle
2026-01-29T15:58:35.593953,-0.025,-0.071,1.142,2.469,-5.717,7.548,1.144,9.786,idle
2026-01-29T15:58:35.626458,-0.025,-0.071,1.142,2.469,-5.717,7.548,1.144,9.786,idle
2026-01-29T15:58:35.658068,-0.025,-0.071,1.142,2.469,-5.717,7.548,1.144,9.786,idle
2026-01-29T15:58:35.689590,-0.025,-0.071,1.142,2.469,-5.717,7.548,1.144,9.786,idle
2026-01-29T15:58:35.710907,-0.025,-0.071,1.142,2.469,-5.717,7.548,1.144,9.786,idle
2026-01-29T15:58:35.740261,-0.025,-0.071,1.142,2.469,-5.717,7.548,1.144,9.786,idle
2026-01-29T15:58:35.764116,-0.025,-0.071,1.142,2.469,-5.717,7.548,1.144,9.786,idle
2026-01-29T15:58:35.795864,-0.025,-0.071,1.142,2.469,-5.717,7.548,1.144,9.786,idle
2026-01-29T15:58:35.826514,-0.025,-0.071,1.142,2.469,-5.717,7.548,1.144,9.786,idle
2026-01-29T15:58:35.858616,-0.025,-0.071,1.142,2.469,-5.717,7.548,1.144,9.786,idle
2026-01-29T15:58:35.891273,-0.025,-0.071,1.142,2.469,-5.717,7.548,1.144,9.786,idle
2026-01-29T15:58:35.916814,-0.025,-0.071,1.142,2.469,-5.717,7.548,1.144,9.786,idle
2026-01-29T15:58:35.949752,-0.025,-0.071,1.142,2.469,-5.717,7.548,1.144,9.786,idle
2026-01-29T15:58:35.975323,-0.025,-0.071,1.142,2.469,-5.717,7.548,1.144,9.786,idle
2026-01-29T15:58:36.007132,-0.025,-0.071,1.142,2.469,-5.717,7.548,1.144,9.786,idle
2026-01-29T15:58:36.038977,-0.025,-0.071,1.142,2.469,-5.717,7.548,1.144,9.786,idle
2026-01-29T15:58:36.078496,-0.025,-0.071,1.142,2.469,-5.717,7.548,1.144,9.786,idle
2026-01-29T15:58:36.107572,-0.025,-0.071,1.142,2.469,-5.717,7.548,1.144,9.786,idle
2026-01-29T15:58:36.116300,-0.025,-0.071,1.142,2.469,-5.717,7.548,1.144,9.786,idle
2026-01-29T15:58:36.149162,-0.025,-0.071,1.142,2.469,-5.717,7.548,1.144,9.786,idle
2026-01-29T15:58:36.174314,-0.025,-0.071,1.142,2.469,-5.717,7.548,1.144,9.786,idle
2026-01-29T15:58:36.197021,-0.025,-0.071,1.142,2.469,-5.717,7.548,1.144,9.786,idle
2026-01-29T15:58:36.223523,-0.025,-0.071,1.142,2.469,-5.717,7.548,1.144,9.786,idle
2026-01-29T15:58:36.233918,0.053,0.046,1.047,-0.121,-0.117,-0.922,1.049,0.937,idle
2026-01-29T15:58:36.255390,0.053,0.046,1.047,-0.121,-0.117,-0.922,1.049,0.937,idle
2026-01-29T15:58:36.296997,0.053,0.046,1.047,-0.121,-0.117,-0.922,1.049,0.937,idle
2026-01-29T15:58:36.326447,0.053,0.046,1.047,-0.121,-0.117,-0.922,1.049,0.937,idle
2026-01-29T15:58:36.360292,0.053,0.046,1.047,-0.121,-0.117,-0.922,1.049,0.937,idle
2026-01-29T15:58:36.391687,0.053,0.046,1.047,-0.121,-0.117,-0.922,1.049,0.937,idle
2026-01-29T15:58:36.413072,0.053,0.046,1.047,-0.121,-0.117,-0.922,1.049,0.937,idle
2026-01-29T15:58:36.442423,0.053,0.046,1.047,-0.121,-0.117,-0.922,1.049,0.937,idle
2026-01-29T15:58:36.474662,0.053,0.046,1.047,-0.121,-0.117,-0.922,1.049,0.937,idle
2026-01-29T15:58:36.497244,0.053,0.046,1.047,-0.121,-0.117,-0.922,1.049,0.937,idle
2026-01-29T15:59:47.247319,0,0,0,0,0,0,0,0,idle
2026-01-29T15:59:47.270917,0.06,0.021,1.039,0.089,0.023,-0.152,1.041,0.177,idle
2026-01-29T15:59:47.298569,0.061,0.023,1.038,0.019,0.023,-0.082,1.04,0.087,idle
2026-01-29T15:59:47.322159,0.061,0.023,1.038,0.019,0.023,-0.082,1.04,0.087,idle
2026-01-29T15:59:47.354593,0.061,0.023,1.038,0.019,0.023,-0.082,1.04,0.087,idle
2026-01-29T15:59:47.386305,0.061,0.023,1.038,0.019,0.023,-0.082,1.04,0.087,idle
2026-01-29T15:59:47.424370,0.061,0.023,1.038,0.019,0.023,-0.082,1.04,0.087,idle
2026-01-29T15:59:47.449205,0.061,0.023,1.038,0.019,0.023,-0.082,1.04,0.087,idle
2026-01-29T15:59:47.490576,0.061,0.023,1.038,0.019,0.023,-0.082,1.04,0.087,idle
2026-01-29T15:59:47.522100,0.061,0.023,1.038,0.019,0.023,-0.082,1.04,0.087,idle
2026-01-29T15:59:47.551564,0.061,0.023,1.038,0.019,0.023,-0.082,1.04,0.087,idle
2026-01-29T15:59:47.573861,0.061,0.023,1.038,0.019,0.023,-0.082,1.04,0.087,idle
2026-01-29T15:59:47.606523,0.061,0.023,1.038,0.019,0.023,-0.082,1.04,0.087,idle
2026-01-29T15:59:47.632963,0.061,0.023,1.038,0.019,0.023,-0.082,1.04,0.087,idle
2026-01-29T15:59:47.657136,0.061,0.023,1.038,0.019,0.023,-0.082,1.04,0.087,idle
2026-01-29T15:59:47.668399,0.061,0.023,1.038,0.019,0.023,-0.082,1.04,0.087,idle
2026-01-29T15:59:47.689760,0.061,0.023,1.038,0.019,0.023,-0.082,1.04,0.087,idle
2026-01-29T15:59:47.720119,0.061,0.023,1.038,0.019,0.023,-0.082,1.04,0.087,idle
2026-01-29T15:59:47.726885,0.061,0.021,1.04,-0.051,0.023,-0.222,1.042,0.229,idle
2026-01-29T15:59:47.753041,0.061,0.021,1.04,-0.051,0.023,-0.222,1.042,0.229,idle
2026-01-29T15:59:47.786343,0.061,0.021,1.04,-0.051,0.023,-0.222,1.042,0.229,idle
2026-01-29T15:59:47.818345,0.061,0.021,1.04,-0.051,0.023,-0.222,1.042,0.229,idle
2026-01-29T15:59:47.850299,0.061,0.021,1.04,-0.051,0.023,-0.222,1.042,0.229,idle
2026-01-29T15:59:47.890654,0.061,0.021,1.04,-0.051,0.023,-0.222,1.042,0.229,idle
2026-01-29T15:59:47.921023,0.061,0.021,1.04,-0.051,0.023,-0.222,1.042,0.229,idle
2026-01-29T15:59:47.954504,0.061,0.021,1.04,-0.051,0.023,-0.222,1.042,0.229,idle
2026-01-29T15:59:47.985944,0.061,0.021,1.04,-0.051,0.023,-0.222,1.042,0.229,idle
2026-01-29T15:59:48.017467,0.061,0.021,1.04,-0.051,0.023,-0.222,1.042,0.229,idle
2026-01-29T15:59:48.056062,0.061,0.021,1.04,-0.051,0.023,-0.222,1.042,0.229,idle
2026-01-29T15:59:48.087975,0.061,0.021,1.04,-0.051,0.023,-0.222,1.042,0.229,idle
2026-01-29T15:59:48.117704,0.061,0.021,1.04,-0.051,0.023,-0.222,1.042,0.229,idle
2026-01-29T15:59:48.147414,0.061,0.021,1.04,-0.051,0.023,-0.222,1.042,0.229,idle
2026-01-29T15:59:48.190195,0.061,0.021,1.04,-0.051,0.023,-0.222,1.042,0.229,idle
2026-01-29T15:59:48.207708,0.062,0.022,1.038,0.089,0.023,-0.082,1.04,0.123,idle
2026-01-29T15:59:48.233239,0.062,0.022,1.038,0.089,0.023,-0.082,1.04,0.123,idle
2026-01-29T15:59:48.264693,0.062,0.022,1.038,0.089,0.023,-0.082,1.04,0.123,idle
2026-01-29T15:59:48.296571,0.062,0.022,1.038,0.089,0.023,-0.082,1.04,0.123,idle
2026-01-29T15:59:48.338259,0.062,0.022,1.038,0.089,0.023,-0.082,1.04,0.123,idle
2026-01-29T15:59:48.368189,0.062,0.022,1.038,0.089,0.023,-0.082,1.04,0.123,idle
2026-01-29T15:59:48.390350,0.062,0.022,1.038,0.089,0.023,-0.082,1.04,0.123,idle
2026-01-29T15:59:48.423027,0.062,0.022,1.038,0.089,0.023,-0.082,1.04,0.123,idle
2026-01-29T15:59:48.456035,0.062,0.022,1.038,0.089,0.023,-0.082,1.04,0.123,idle
2026-01-29T15:59:48.487709,0.062,0.022,1.038,0.089,0.023,-0.082,1.04,0.123,idle
2026-01-29T15:59:48.518901,0.062,0.022,1.038,0.089,0.023,-0.082,1.04,0.123,idle
2026-01-29T15:59:48.538804,0.062,0.022,1.038,0.089,0.023,-0.082,1.04,0.123,idle
2026-01-29T15:59:48.571111,0.062,0.022,1.038,0.089,0.023,-0.082,1.04,0.123,idle
2026-01-29T15:59:48.593187,0.062,0.022,1.038,0.089,0.023,-0.082,1.04,0.123,idle
2026-01-29T15:59:48.622000,0.062,0.022,1.038,0.089,0.023,-0.082,1.04,0.123,idle
2026-01-29T15:59:48.658174,0.062,0.022,1.038,0.089,0.023,-0.082,1.04,0.123,idle
2026-01-29T15:59:48.691169,0.062,0.022,1.038,0.089,0.023,-0.082,1.04,0.123,idle
2026-01-29T15:59:48.713803,0.428,-0.005,0.907,-2.921,-61.017,-6.522,1.003,61.434,idle
2026-01-29T15:59:48.740354,0.428,-0.005,0.907,-2.921,-61.017,-6.522,1.003,61.434,idle
2026-01-29T15:59:48.771408,0.428,-0.005,0.907,-2.921,-61.017,-6.522,1.003,61.434,idle
2026-01-29T15:59:48.805350,0.428,-0.005,0.907,-2.921,-61.017,-6.522,1.003,61.434,idle
2026-01-29T15:59:48.834826,0.428,-0.005,0.907,-2.921,-61.017,-6.522,1.003,61.434,idle
2026-01-29T15:59:48.866853,0.428,-0.005,0.907,-2.921,-61.017,-6.522,1.003,61.434,idle
2026-01-29T15:59:48.898770,0.428,-0.005,0.907,-2.921,-61.017,-6.522,1.003,61.434,idle
2026-01-29T15:59:48.926570,0.428,-0.005,0.907,-2.921,-61.017,-6.522,1.003,61.434,idle
2026-01-29T15:59:48.952143,0.428,-0.005,0.907,-2.921,-61.017,-6.522,1.003,61.434,idle
2026-01-29T15:59:48.983794,0.428,-0.005,0.907,-2.921,-61.017,-6.522,1.003,61.434,idle
2026-01-29T15:59:49.015814,0.428,-0.005,0.907,-2.921,-61.017,-6.522,1.003,61.434,idle
2026-01-29T15:59:49.043572,0.428,-0.005,0.907,-2.921,-61.017,-6.522,1.003,61.434,idle
2026-01-29T15:59:49.089844,0.428,-0.005,0.907,-2.921,-61.017,-6.522,1.003,61.434,idle
2026-01-29T15:59:49.108453,0.428,-0.005,0.907,-2.921,-61.017,-6.522,1.003,61.434,idle
2026-01-29T15:59:49.132314,0.428,-0.005,0.907,-2.921,-61.017,-6.522,1.003,61.434,idle
2026-01-29T15:59:49.165784,0.428,-0.005,0.907,-2.921,-61.017,-6.522,1.003,61.434,idle
2026-01-29T15:59:49.189947,0.428,-0.005,0.907,-2.921,-61.017,-6.522,1.003,61.434,idle
2026-01-29T15:59:49.215688,0.428,-0.005,0.907,-2.921,-61.017,-6.522,1.003,61.434,idle
2026-01-29T15:59:49.227949,0.325,0.035,1.026,21.999,73.453,11.258,1.076,77.498,idle
2026-01-29T15:59:49.256682,0.325,0.035,1.026,21.999,73.453,11.258,1.076,77.498,idle
2026-01-29T15:59:49.288984,0.325,0.035,1.026,21.999,73.453,11.258,1.076,77.498,idle
2026-01-29T15:59:49.324609,0.325,0.035,1.026,21.999,73.453,11.258,1.076,77.498,idle
2026-01-29T15:59:49.354015,0.325,0.035,1.026,21.999,73.453,11.258,1.076,77.498,idle
2026-01-29T15:59:49.375395,0.325,0.035,1.026,21.999,73.453,11.258,1.076,77.498,idle
2026-01-29T15:59:49.401941,0.325,0.035,1.026,21.999,73.453,11.258,1.076,77.498,idle
2026-01-29T15:59:49.433653,0.325,0.035,1.026,21.999,73.453,11.258,1.076,77.498,idle
2026-01-29T15:59:49.465378,0.325,0.035,1.026,21.999,73.453,11.258,1.076,77.498,idle
2026-01-29T15:59:49.493641,0.325,0.035,1.026,21.999,73.453,11.258,1.076,77.498,idle
2026-01-29T15:59:49.518091,0.325,0.035,1.026,21.999,73.453,11.258,1.076,77.498,idle
2026-01-29T15:59:49.547669,0.325,0.035,1.026,21.999,73.453,11.258,1.076,77.498,idle
2026-01-29T15:59:49.555527,0.325,0.035,1.026,21.999,73.453,11.258,1.076,77.498,idle
2026-01-29T15:59:49.588798,0.325,0.035,1.026,21.999,73.453,11.258,1.076,77.498,idle
2026-01-29T15:59:49.615376,0.325,0.035,1.026,21.999,73.453,11.258,1.076,77.498,idle
2026-01-29T15:59:49.643469,0.325,0.035,1.026,21.999,73.453,11.258,1.076,77.498,idle
2026-01-29T15:59:49.671778,0.325,0.035,1.026,21.999,73.453,11.258,1.076,77.498,idle
2026-01-29T15:59:49.688440,0.325,0.035,1.026,21.999,73.453,11.258,1.076,77.498,idle
2026-01-29T15:59:49.715969,0.325,0.035,1.026,21.999,73.453,11.258,1.076,77.498,idle
2026-01-29T15:59:49.738619,-0.199,-0.063,0.902,-1.031,61.133,13.358,0.926,62.584,idle
2026-01-29T15:59:49.768290,-0.199,-0.063,0.902,-1.031,61.133,13.358,0.926,62.584,idle
2026-01-29T15:59:49.799651,-0.199,-0.063,0.902,-1.031,61.133,13.358,0.926,62.584,idle
2026-01-29T15:59:49.825042,-0.199,-0.063,0.902,-1.031,61.133,13.358,0.926,62.584,idle
2026-01-29T15:59:49.851256,-0.199,-0.063,0.902,-1.031,61.133,13.358,0.926,62.584,idle
2026-01-29T15:59:49.882613,-0.199,-0.063,0.902,-1.031,61.133,13.358,0.926,62.584,idle
2026-01-29T15:59:49.921680,-0.199,-0.063,0.902,-1.031,61.133,13.358,0.926,62.584,idle
2026-01-29T15:59:49.948358,-0.199,-0.063,0.902,-1.031,61.133,13.358,0.926,62.584,idle
2026-01-29T15:59:49.975676,-0.199,-0.063,0.902,-1.031,61.133,13.358,0.926,62.584,idle
2026-01-29T15:59:50.005344,-0.199,-0.063,0.902,-1.031,61.133,13.358,0.926,62.584,idle
2026-01-29T15:59:50.037869,-0.199,-0.063,0.902,-1.031,61.133,13.358,0.926,62.584,idle
2026-01-29T15:59:50.067522,-0.199,-0.063,0.902,-1.031,61.133,13.358,0.926,62.584,idle
2026-01-29T15:59:50.089651,-0.199,-0.063,0.902,-1.031,61.133,13.358,0.926,62.584,idle
2026-01-29T15:59:50.123294,-0.199,-0.063,0.902,-1.031,61.133,13.358,0.926,62.584,idle
2026-01-29T15:59:50.148977,-0.199,-0.063,0.902,-1.031,61.133,13.358,0.926,62.584,idle
2026-01-29T15:59:50.186394,-0.199,-0.063,0.902,-1.031,61.133,13.358,0.926,62.584,idle
2026-01-29T15:59:50.217685,-0.199,-0.063,0.902,-1.031,61.133,13.358,0.926,62.584,idle
2026-01-29T15:59:50.247323,-0.199,-0.063,0.902,-1.031,61.133,13.358,0.926,62.584,idle
2026-01-29T15:59:50.276085,0.02,-0.474,0.75,-102.391,-19.087,-16.8,0.887,105.514,idle
2026-01-29T15:59:50.305937,0.02,-0.474,0.75,-102.391,-19.087,-16.8,0.887,105.514,idle
2026-01-29T15:59:50.337676,0.02,-0.474,0.75,-102.391,-19.087,-16.8,0.887,105.514,idle
2026-01-29T15:59:50.370546,0.02,-0.474,0.75,-102.391,-19.087,-16.8,0.887,105.514,idle
2026-01-29T15:59:50.401107,0.02,-0.474,0.75,-102.391,-19.087,-16.8,0.887,105.514,idle
2026-01-29T15:59:50.423130,0.02,-0.474,0.75,-102.391,-19.087,-16.8,0.887,105.514,idle
2026-01-29T15:59:50.454831,0.02,-0.474,0.75,-102.391,-19.087,-16.8,0.887,105.514,idle
2026-01-29T15:59:50.486418,0.02,-0.474,0.75,-102.391,-19.087,-16.8,0.887,105.514,idle
2026-01-29T15:59:50.518687,0.02,-0.474,0.75,-102.391,-19.087,-16.8,0.887,105.514,idle
2026-01-29T15:59:50.550140,0.02,-0.474,0.75,-102.391,-19.087,-16.8,0.887,105.514,idle
2026-01-29T15:59:50.571804,0.02,-0.474,0.75,-102.391,-19.087,-16.8,0.887,105.514,idle
2026-01-29T15:59:50.602651,0.02,-0.474,0.75,-102.391,-19.087,-16.8,0.887,105.514,idle
2026-01-29T15:59:50.632844,0.02,-0.474,0.75,-102.391,-19.087,-16.8,0.887,105.514,idle
2026-01-29T15:59:50.666698,0.02,-0.474,0.75,-102.391,-19.087,-16.8,0.887,105.514,idle
2026-01-29T15:59:50.697529,0.02,-0.474,0.75,-102.391,-19.087,-16.8,0.887,105.514,idle
2026-01-29T15:59:50.723592,0.02,-0.474,0.75,-102.391,-19.087,-16.8,0.887,105.514,idle
2026-01-29T15:59:50.750343,0.02,-0.474,0.75,-102.391,-19.087,-16.8,0.887,105.514,idle
2026-01-29T15:59:50.781559,0.072,-0.18,1.098,161.999,-8.867,41.638,1.115,167.499,idle
2026-01-29T15:59:50.822820,0.072,-0.18,1.098,161.999,-8.867,41.638,1.115,167.499,idle
2026-01-29T15:59:50.854609,0.072,-0.18,1.098,161.999,-8.867,41.638,1.115,167.499,idle
2026-01-29T15:59:50.886083,0.072,-0.18,1.098,161.999,-8.867,41.638,1.115,167.499,idle
2026-01-29T15:59:50.917128,0.072,-0.18,1.098,161.999,-8.867,41.638,1.115,167.499,idle
2026-01-29T15:59:50.948758,0.072,-0.18,1.098,161.999,-8.867,41.638,1.115,167.499,idle
2026-01-29T15:59:50.980233,0.072,-0.18,1.098,161.999,-8.867,41.638,1.115,167.499,idle
2026-01-29T15:59:51.022134,0.072,-0.18,1.098,161.999,-8.867,41.638,1.115,167.499,idle
2026-01-29T15:59:51.053816,0.072,-0.18,1.098,161.999,-8.867,41.638,1.115,167.499,idle
2026-01-29T15:59:51.085760,0.072,-0.18,1.098,161.999,-8.867,41.638,1.115,167.499,idle
2026-01-29T15:59:51.117488,0.072,-0.18,1.098,161.999,-8.867,41.638,1.115,167.499,idle
2026-01-29T15:59:51.138816,0.072,-0.18,1.098,161.999,-8.867,41.638,1.115,167.499,idle
2026-01-29T15:59:51.168859,0.072,-0.18,1.098,161.999,-8.867,41.638,1.115,167.499,idle
2026-01-29T15:59:51.202287,0.072,-0.18,1.098,161.999,-8.867,41.638,1.115,167.499,idle
2026-01-29T15:59:51.239817,0.072,-0.18,1.098,161.999,-8.867,41.638,1.115,167.499,idle
2026-01-29T15:59:51.263854,0.145,0.264,1.055,-69.631,-9.217,-24.372,1.097,74.347,idle
2026-01-29T15:59:51.289702,0.145,0.264,1.055,-69.631,-9.217,-24.372,1.097,74.347,idle
2026-01-29T15:59:51.323644,0.145,0.264,1.055,-69.631,-9.217,-24.372,1.097,74.347,idle
2026-01-29T15:59:51.355932,0.145,0.264,1.055,-69.631,-9.217,-24.372,1.097,74.347,idle
2026-01-29T15:59:51.387365,0.145,0.264,1.055,-69.631,-9.217,-24.372,1.097,74.347,idle
2026-01-29T15:59:51.419257,0.145,0.264,1.055,-69.631,-9.217,-24.372,1.097,74.347,idle
2026-01-29T15:59:51.451057,0.145,0.264,1.055,-69.631,-9.217,-24.372,1.097,74.347,idle
2026-01-29T15:59:51.472075,0.145,0.264,1.055,-69.631,-9.217,-24.372,1.097,74.347,idle
2026-01-29T15:59:51.502320,0.145,0.264,1.055,-69.631,-9.217,-24.372,1.097,74.347,idle
2026-01-29T15:59:51.536337,0.145,0.264,1.055,-69.631,-9.217,-24.372,1.097,74.347,idle
2026-01-29T15:59:51.566964,0.145,0.264,1.055,-69.631,-9.217,-24.372,1.097,74.347,idle
2026-01-29T15:59:51.594865,0.145,0.264,1.055,-69.631,-9.217,-24.372,1.097,74.347,idle
2026-01-29T15:59:51.620200,0.145,0.264,1.055,-69.631,-9.217,-24.372,1.097,74.347,idle
2026-01-29T15:59:51.652246,0.145,0.264,1.055,-69.631,-9.217,-24.372,1.097,74.347,idle
2026-01-29T15:59:51.689858,0.145,0.264,1.055,-69.631,-9.217,-24.372,1.097,74.347,idle
2026-01-29T15:59:51.716586,0.145,0.264,1.055,-69.631,-9.217,-24.372,1.097,74.347,idle
2026-01-29T15:59:51.748672,0.145,0.264,1.055,-69.631,-9.217,-24.372,1.097,74.347,idle
2026-01-29T15:59:51.775345,0.109,0.082,1.018,-27.421,21.583,-16.182,1.027,38.465,idle
2026-01-29T15:59:51.800990,0.109,0.082,1.018,-27.421,21.583,-16.182,1.027,38.465,idle
2026-01-29T15:59:51.832328,0.109,0.082,1.018,-27.421,21.583,-16.182,1.027,38.465,idle
2026-01-29T15:59:51.853761,0.109,0.082,1.018,-27.421,21.583,-16.182,1.027,38.465,idle
2026-01-29T15:59:51.885251,0.109,0.082,1.018,-27.421,21.583,-16.182,1.027,38.465,idle
2026-01-29T15:59:51.916722,0.109,0.082,1.018,-27.421,21.583,-16.182,1.027,38.465,idle
2026-01-29T15:59:51.948053,0.109,0.082,1.018,-27.421,21.583,-16.182,1.027,38.465,idle
2026-01-29T15:59:51.988234,0.109,0.082,1.018,-27.421,21.583,-16.182,1.027,38.465,idle
2026-01-29T15:59:52.017119,0.109,0.082,1.018,-27.421,21.583,-16.182,1.027,38.465,idle
2026-01-29T15:59:52.039286,0.109,0.082,1.018,-27.421,21.583,-16.182,1.027,38.465,idle
2026-01-29T15:59:52.071142,0.109,0.082,1.018,-27.421,21.583,-16.182,1.027,38.465,idle
2026-01-29T16:00:44.257457,0,0,0,0,0,0,0,0,idle
2026-01-29T16:00:44.288289,0.073,0.022,1.039,0.089,0.023,-0.222,1.042,0.24,idle
2026-01-29T16:00:44.319439,0.073,0.022,1.039,0.089,0.023,-0.222,1.042,0.24,idle
2026-01-29T16:00:44.352762,0.073,0.022,1.039,0.089,0.023,-0.222,1.042,0.24,idle
2026-01-29T16:00:44.384940,0.073,0.022,1.039,0.089,0.023,-0.222,1.042,0.24,idle
2026-01-29T16:00:44.416308,0.073,0.022,1.039,0.089,0.023,-0.222,1.042,0.24,idle
2026-01-29T16:00:44.447711,0.073,0.022,1.039,0.089,0.023,-0.222,1.042,0.24,idle
2026-01-29T16:00:44.480969,0.073,0.022,1.039,0.089,0.023,-0.222,1.042,0.24,idle
2026-01-29T16:00:44.512452,0.073,0.022,1.039,0.089,0.023,-0.222,1.042,0.24,idle
2026-01-29T16:00:44.544431,0.073,0.022,1.039,0.089,0.023,-0.222,1.042,0.24,idle
2026-01-29T16:00:44.572800,0.073,0.022,1.039,0.089,0.023,-0.222,1.042,0.24,idle
2026-01-29T16:00:44.597593,0.071,0.022,1.039,0.159,0.023,-0.292,1.042,0.333,idle
2026-01-29T16:00:44.629913,0.071,0.022,1.039,0.159,0.023,-0.292,1.042,0.333,idle
2026-01-29T16:00:44.661692,0.071,0.022,1.039,0.159,0.023,-0.292,1.042,0.333,idle
2026-01-29T16:00:44.688608,0.071,0.022,1.039,0.159,0.023,-0.292,1.042,0.333,idle
2026-01-29T16:00:44.713992,0.071,0.022,1.039,0.159,0.023,-0.292,1.042,0.333,idle
2026-01-29T16:00:44.745780,0.071,0.022,1.039,0.159,0.023,-0.292,1.042,0.333,idle
2026-01-29T16:00:44.777107,0.071,0.022,1.039,0.159,0.023,-0.292,1.042,0.333,idle
2026-01-29T16:00:44.811248,0.071,0.022,1.039,0.159,0.023,-0.292,1.042,0.333,idle
2026-01-29T16:00:44.818455,0.071,0.022,1.039,0.159,0.023,-0.292,1.042,0.333,idle
2026-01-29T16:00:44.850783,0.071,0.022,1.039,0.159,0.023,-0.292,1.042,0.333,idle
2026-01-29T16:00:44.878842,0.071,0.022,1.039,0.159,0.023,-0.292,1.042,0.333,idle
2026-01-29T16:00:44.904444,0.071,0.022,1.039,0.159,0.023,-0.292,1.042,0.333,idle
2026-01-29T16:00:44.927544,0.071,0.022,1.039,0.159,0.023,-0.292,1.042,0.333,idle
2026-01-29T16:00:44.969090,0.071,0.022,1.039,0.159,0.023,-0.292,1.042,0.333,idle
2026-01-29T16:00:44.993364,0.073,0.02,1.038,-0.051,-0.047,-0.222,1.041,0.232,idle
2026-01-29T16:00:45.018972,0.073,0.02,1.038,-0.051,-0.047,-0.222,1.041,0.232,idle
2026-01-29T16:00:45.044779,0.073,0.02,1.038,-0.051,-0.047,-0.222,1.041,0.232,idle
2026-01-29T16:00:45.085545,0.073,0.02,1.038,-0.051,-0.047,-0.222,1.041,0.232,idle
2026-01-29T16:00:45.116347,0.073,0.02,1.038,-0.051,-0.047,-0.222,1.041,0.232,idle
2026-01-29T16:00:45.145997,0.073,0.02,1.038,-0.051,-0.047,-0.222,1.041,0.232,idle
2026-01-29T16:00:45.177773,0.073,0.02,1.038,-0.051,-0.047,-0.222,1.041,0.232,idle
2026-01-29T16:00:45.218653,0.073,0.02,1.038,-0.051,-0.047,-0.222,1.041,0.232,idle
2026-01-29T16:00:45.236137,0.073,0.02,1.038,-0.051,-0.047,-0.222,1.041,0.232,idle
2026-01-29T16:00:45.271004,0.073,0.02,1.038,-0.051,-0.047,-0.222,1.041,0.232,idle
2026-01-29T16:00:45.296407,0.073,0.02,1.038,-0.051,-0.047,-0.222,1.041,0.232,idle
2026-01-29T16:00:45.329791,0.073,0.02,1.038,-0.051,-0.047,-0.222,1.041,0.232,idle
2026-01-29T16:00:45.358446,0.099,0.007,1.125,0.929,-1.097,1.738,1.129,2.256,idle
2026-01-29T16:00:45.380838,0.099,0.007,1.125,0.929,-1.097,1.738,1.129,2.256,idle
2026-01-29T16:00:45.412820,0.099,0.007,1.125,0.929,-1.097,1.738,1.129,2.256,idle
2026-01-29T16:00:45.444882,0.099,0.007,1.125,0.929,-1.097,1.738,1.129,2.256,idle
2026-01-29T16:00:45.485978,0.099,0.007,1.125,0.929,-1.097,1.738,1.129,2.256,idle
2026-01-29T16:00:45.518090,0.099,0.007,1.125,0.929,-1.097,1.738,1.129,2.256,idle
2026-01-29T16:00:45.551863,0.099,0.007,1.125,0.929,-1.097,1.738,1.129,2.256,idle
2026-01-29T16:00:45.581377,0.099,0.007,1.125,0.929,-1.097,1.738,1.129,2.256,idle
2026-01-29T16:00:45.591804,0.099,0.007,1.125,0.929,-1.097,1.738,1.129,2.256,idle
2026-01-29T16:00:45.633882,0.099,0.007,1.125,0.929,-1.097,1.738,1.129,2.256,idle
2026-01-29T16:00:45.657918,0.099,0.007,1.125,0.929,-1.097,1.738,1.129,2.256,idle
2026-01-29T16:00:45.686387,0.099,0.007,1.125,0.929,-1.097,1.738,1.129,2.256,idle
2026-01-29T16:00:45.711505,0.099,0.007,1.125,0.929,-1.097,1.738,1.129,2.256,idle
2026-01-29T16:00:45.752367,0.099,0.007,1.125,0.929,-1.097,1.738,1.129,2.256,idle
2026-01-29T16:00:45.778028,0.116,0.061,1.08,-3.201,-9.497,-12.472,1.088,16.0,idle
2026-01-29T16:00:45.802218,0.116,0.061,1.08,-3.201,-9.497,-12.472,1.088,16.0,idle
2026-01-29T16:00:45.835007,0.116,0.061,1.08,-3.201,-9.497,-12.472,1.088,16.0,idle
2026-01-29T16:00:45.868150,0.116,0.061,1.08,-3.201,-9.497,-12.472,1.088,16.0,idle
2026-01-29T16:00:45.898580,0.116,0.061,1.08,-3.201,-9.497,-12.472,1.088,16.0,idle
2026-01-29T16:00:45.932227,0.116,0.061,1.08,-3.201,-9.497,-12.472,1.088,16.0,idle
2026-01-29T16:00:45.963234,0.116,0.061,1.08,-3.201,-9.497,-12.472,1.088,16.0,idle
2026-01-29T16:00:45.994831,0.116,0.061,1.08,-3.201,-9.497,-12.472,1.088,16.0,idle
2026-01-29T16:00:46.017702,0.116,0.061,1.08,-3.201,-9.497,-12.472,1.088,16.0,idle
2026-01-29T16:00:46.047772,0.116,0.061,1.08,-3.201,-9.497,-12.472,1.088,16.0,idle
2026-01-29T16:00:46.079161,0.116,0.061,1.08,-3.201,-9.497,-12.472,1.088,16.0,idle
2026-01-29T16:00:46.118631,0.116,0.061,1.08,-3.201,-9.497,-12.472,1.088,16.0,idle
2026-01-29T16:00:46.134445,0.324,0.019,0.994,1.839,-36.727,5.868,1.045,37.239,idle
2026-01-29T16:00:46.163472,0.324,0.019,0.994,1.839,-36.727,5.868,1.045,37.239,idle
2026-01-29T16:00:46.196002,0.324,0.019,0.994,1.839,-36.727,5.868,1.045,37.239,idle
2026-01-29T16:00:46.227731,0.324,0.019,0.994,1.839,-36.727,5.868,1.045,37.239,idle
2026-01-29T16:00:46.268697,0.324,0.019,0.994,1.839,-36.727,5.868,1.045,37.239,idle
2026-01-29T16:00:46.296035,0.324,0.019,0.994,1.839,-36.727,5.868,1.045,37.239,idle
2026-01-29T16:00:46.320941,0.324,0.019,0.994,1.839,-36.727,5.868,1.045,37.239,idle
2026-01-29T16:00:46.343488,0.324,0.019,0.994,1.839,-36.727,5.868,1.045,37.239,idle
2026-01-29T16:00:46.364957,0.324,0.019,0.994,1.839,-36.727,5.868,1.045,37.239,idle
2026-01-29T16:00:46.417377,0.324,0.019,0.994,1.839,-36.727,5.868,1.045,37.239,idle
2026-01-29T16:00:46.438106,0.324,0.019,0.994,1.839,-36.727,5.868,1.045,37.239,idle
2026-01-29T16:00:46.465564,0.324,0.019,0.994,1.839,-36.727,5.868,1.045,37.239,idle
2026-01-29T16:00:46.498982,0.473,0.022,0.853,0.439,11.223,0.478,0.976,11.242,idle
2026-01-29T16:00:46.541869,0.473,0.022,0.853,0.439,11.223,0.478,0.976,11.242,idle
2026-01-29T16:00:46.586497,0.473,0.022,0.853,0.439,11.223,0.478,0.976,11.242,idle
2026-01-29T16:00:46.611950,0.473,0.022,0.853,0.439,11.223,0.478,0.976,11.242,idle
2026-01-29T16:00:46.643257,0.473,0.022,0.853,0.439,11.223,0.478,0.976,11.242,idle
2026-01-29T16:00:46.669723,0.473,0.022,0.853,0.439,11.223,0.478,0.976,11.242,idle
2026-01-29T16:00:46.694810,0.473,0.022,0.853,0.439,11.223,0.478,0.976,11.242,idle
2026-01-29T16:00:46.726998,0.473,0.022,0.853,0.439,11.223,0.478,0.976,11.242,idle
2026-01-29T16:00:46.767598,0.473,0.022,0.853,0.439,11.223,0.478,0.976,11.242,idle
2026-01-29T16:00:46.798543,0.473,0.022,0.853,0.439,11.223,0.478,0.976,11.242,idle
2026-01-29T16:00:46.802281,0.473,0.022,0.853,0.439,11.223,0.478,0.976,11.242,idle
2026-01-29T16:00:46.835024,0.473,0.022,0.853,0.439,11.223,0.478,0.976,11.242,idle
2026-01-29T16:00:46.855772,0.275,0.037,1.012,0.159,29.913,1.248,1.049,29.939,idle
2026-01-29T16:00:46.879797,0.275,0.037,1.012,0.159,29.913,1.248,1.049,29.939,idle
2026-01-29T16:00:46.901084,0.275,0.037,1.012,0.159,29.913,1.248,1.049,29.939,idle
2026-01-29T16:00:46.933342,0.275,0.037,1.012,0.159,29.913,1.248,1.049,29.939,idle
2026-01-29T16:00:46.967706,0.275,0.037,1.012,0.159,29.913,1.248,1.049,29.939,idle
2026-01-29T16:00:47.001057,0.275,0.037,1.012,0.159,29.913,1.248,1.049,29.939,idle
2026-01-29T16:00:47.025939,0.275,0.037,1.012,0.159,29.913,1.248,1.049,29.939,idle
2026-01-29T16:00:47.050342,0.275,0.037,1.012,0.159,29.913,1.248,1.049,29.939,idle
2026-01-29T16:00:47.075283,0.275,0.037,1.012,0.159,29.913,1.248,1.049,29.939,idle
2026-01-29T16:00:47.098242,0.275,0.037,1.012,0.159,29.913,1.248,1.049,29.939,idle
2026-01-29T16:00:47.125720,0.275,0.037,1.012,0.159,29.913,1.248,1.049,29.939,idle
2026-01-29T16:00:47.149869,0.275,0.037,1.012,0.159,29.913,1.248,1.049,29.939,idle
2026-01-29T16:00:47.182792,0.275,0.037,1.012,0.159,29.913,1.248,1.049,29.939,idle
2026-01-29T16:00:47.215038,0.275,0.037,1.012,0.159,29.913,1.248,1.049,29.939,idle
2026-01-29T16:00:47.245016,0.111,0.045,1.025,4.079,15.283,0.688,1.032,15.833,idle
2026-01-29T16:01:48.069135,0,0,0,0,0,0,0,0,idle
2026-01-29T16:01:48.090521,0.059,0.018,1.038,-0.051,0.023,-0.152,1.04,0.162,idle
2026-01-29T16:01:48.121493,0.059,0.018,1.038,-0.051,0.023,-0.152,1.04,0.162,idle
2026-01-29T16:01:48.154819,0.059,0.018,1.038,-0.051,0.023,-0.152,1.04,0.162,idle
2026-01-29T16:01:48.188225,0.059,0.018,1.038,-0.051,0.023,-0.152,1.04,0.162,idle
2026-01-29T16:01:48.217918,0.059,0.018,1.038,-0.051,0.023,-0.152,1.04,0.162,idle
2026-01-29T16:01:48.240677,0.059,0.018,1.038,-0.051,0.023,-0.152,1.04,0.162,idle
2026-01-29T16:01:48.271842,0.059,0.018,1.038,-0.051,0.023,-0.152,1.04,0.162,idle
2026-01-29T16:01:48.296700,0.059,0.018,1.038,-0.051,0.023,-0.152,1.04,0.162,idle
2026-01-29T16:01:48.336365,0.059,0.018,1.038,-0.051,0.023,-0.152,1.04,0.162,idle
2026-01-29T16:01:48.357818,0.057,0.022,1.039,-0.051,0.023,-0.152,1.041,0.162,idle
2026-01-29T16:01:48.388590,0.057,0.022,1.039,-0.051,0.023,-0.152,1.041,0.162,idle
2026-01-29T16:01:48.421030,0.057,0.022,1.039,-0.051,0.023,-0.152,1.041,0.162,idle
2026-01-29T16:01:48.456986,0.057,0.022,1.039,-0.051,0.023,-0.152,1.041,0.162,idle
2026-01-29T16:01:48.489587,0.057,0.022,1.039,-0.051,0.023,-0.152,1.041,0.162,idle
2026-01-29T16:01:48.518089,0.057,0.022,1.039,-0.051,0.023,-0.152,1.041,0.162,idle
2026-01-29T16:01:48.539742,0.057,0.022,1.039,-0.051,0.023,-0.152,1.041,0.162,idle
2026-01-29T16:01:48.571110,0.057,0.022,1.039,-0.051,0.023,-0.152,1.041,0.162,idle
2026-01-29T16:01:48.593244,0.057,0.022,1.039,-0.051,0.023,-0.152,1.041,0.162,idle
2026-01-29T16:01:48.622392,0.057,0.022,1.039,-0.051,0.023,-0.152,1.041,0.162,idle
2026-01-29T16:01:48.654002,0.057,0.022,1.039,-0.051,0.023,-0.152,1.041,0.162,idle
2026-01-29T16:01:48.687682,0.057,0.02,1.037,0.019,0.093,-0.152,1.039,0.179,idle
2026-01-29T16:01:48.719628,0.057,0.02,1.037,0.019,0.093,-0.152,1.039,0.179,idle
2026-01-29T16:01:48.756095,0.057,0.02,1.037,0.019,0.093,-0.152,1.039,0.179,idle
2026-01-29T16:01:48.782855,0.057,0.02,1.037,0.019,0.093,-0.152,1.039,0.179,idle
2026-01-29T16:01:48.814280,0.057,0.02,1.037,0.019,0.093,-0.152,1.039,0.179,idle
2026-01-29T16:01:48.855868,0.057,0.02,1.037,0.019,0.093,-0.152,1.039,0.179,idle
2026-01-29T16:01:48.866521,0.057,0.02,1.037,0.019,0.093,-0.152,1.039,0.179,idle
2026-01-29T16:01:48.888541,0.057,0.02,1.037,0.019,0.093,-0.152,1.039,0.179,idle
2026-01-29T16:01:48.920067,0.057,0.02,1.037,0.019,0.093,-0.152,1.039,0.179,idle
2026-01-29T16:01:48.950995,0.057,0.02,1.037,0.019,0.093,-0.152,1.039,0.179,idle
2026-01-29T16:01:48.987886,0.057,0.02,1.037,0.019,0.093,-0.152,1.039,0.179,idle
2026-01-29T16:01:49.013453,0.057,0.019,1.038,-0.051,0.023,-0.152,1.04,0.162,idle
2026-01-29T16:01:49.038290,0.057,0.019,1.038,-0.051,0.023,-0.152,1.04,0.162,idle
2026-01-29T16:01:49.062969,0.057,0.019,1.038,-0.051,0.023,-0.152,1.04,0.162,idle
2026-01-29T16:01:49.089852,0.057,0.019,1.038,-0.051,0.023,-0.152,1.04,0.162,idle
2026-01-29T16:01:49.122147,0.057,0.019,1.038,-0.051,0.023,-0.152,1.04,0.162,idle
2026-01-29T16:01:49.147416,0.057,0.019,1.038,-0.051,0.023,-0.152,1.04,0.162,idle
2026-01-29T16:01:49.162120,0.057,0.019,1.038,-0.051,0.023,-0.152,1.04,0.162,idle
2026-01-29T16:01:49.189254,0.057,0.019,1.038,-0.051,0.023,-0.152,1.04,0.162,idle
2026-01-29T16:01:49.220143,0.057,0.019,1.038,-0.051,0.023,-0.152,1.04,0.162,idle
2026-01-29T16:01:49.228125,0.057,0.019,1.038,-0.051,0.023,-0.152,1.04,0.162,idle
2026-01-29T16:01:49.253175,0.057,0.019,1.038,-0.051,0.023,-0.152,1.04,0.162,idle
2026-01-29T16:01:49.287479,0.057,0.019,1.038,-0.051,0.023,-0.152,1.04,0.162,idle
2026-01-29T16:01:49.314790,0.057,0.019,1.038,-0.051,0.023,-0.152,1.04,0.162,idle
2026-01-29T16:01:49.318643,0.059,0.018,1.04,-0.051,0.023,-0.222,1.042,0.229,idle
2026-01-29T16:01:49.346720,0.059,0.018,1.04,-0.051,0.023,-0.222,1.042,0.229,idle
2026-01-29T16:01:49.387953,0.059,0.018,1.04,-0.051,0.023,-0.222,1.042,0.229,idle
2026-01-29T16:01:49.415200,0.059,0.018,1.04,-0.051,0.023,-0.222,1.042,0.229,idle
2026-01-29T16:01:49.446579,0.059,0.018,1.04,-0.051,0.023,-0.222,1.042,0.229,idle
2026-01-29T16:01:49.469929,0.059,0.018,1.04,-0.051,0.023,-0.222,1.042,0.229,idle
2026-01-29T16:01:49.499672,0.059,0.018,1.04,-0.051,0.023,-0.222,1.042,0.229,idle
2026-01-29T16:01:49.525973,0.059,0.018,1.04,-0.051,0.023,-0.222,1.042,0.229,idle
2026-01-29T16:01:49.552763,0.059,0.018,1.04,-0.051,0.023,-0.222,1.042,0.229,idle
2026-01-29T16:01:49.587837,0.059,0.018,1.04,-0.051,0.023,-0.222,1.042,0.229,idle
2026-01-29T16:01:49.616706,0.056,0.019,1.039,-0.121,0.093,-0.152,1.041,0.215,idle
2026-01-29T16:01:49.649197,0.056,0.019,1.039,-0.121,0.093,-0.152,1.041,0.215,idle
2026-01-29T16:01:49.681187,0.056,0.019,1.039,-0.121,0.093,-0.152,1.041,0.215,idle
2026-01-29T16:01:49.722456,0.056,0.019,1.039,-0.121,0.093,-0.152,1.041,0.215,idle
2026-01-29T16:01:49.754546,0.056,0.019,1.039,-0.121,0.093,-0.152,1.041,0.215,idle
2026-01-29T16:01:49.765423,0.056,0.019,1.039,-0.121,0.093,-0.152,1.041,0.215,idle
2026-01-29T16:01:49.804494,0.056,0.019,1.039,-0.121,0.093,-0.152,1.041,0.215,idle
2026-01-29T16:01:49.828386,0.056,0.019,1.039,-0.121,0.093,-0.152,1.041,0.215,idle
2026-01-29T16:01:49.858681,0.056,0.019,1.039,-0.121,0.093,-0.152,1.041,0.215,idle
2026-01-29T16:01:49.913336,0.056,0.019,1.039,-0.121,0.093,-0.152,1.041,0.215,idle
2026-01-29T16:01:49.955142,0.058,0.022,1.041,-0.051,0.163,-0.152,1.043,0.228,idle
2026-01-29T16:01:49.983623,0.058,0.022,1.041,-0.051,0.163,-0.152,1.043,0.228,idle
2026-01-29T16:01:50.018975,0.058,0.022,1.041,-0.051,0.163,-0.152,1.043,0.228,idle
2026-01-29T16:01:50.050607,0.058,0.022,1.041,-0.051,0.163,-0.152,1.043,0.228,idle
2026-01-29T16:01:50.061244,0.058,0.022,1.041,-0.051,0.163,-0.152,1.043,0.228,idle
2026-01-29T16:01:50.103742,0.058,0.022,1.041,-0.051,0.163,-0.152,1.043,0.228,idle
2026-01-29T16:01:50.127048,0.058,0.022,1.041,-0.051,0.163,-0.152,1.043,0.228,idle
2026-01-29T16:01:50.156823,0.058,0.022,1.041,-0.051,0.163,-0.152,1.043,0.228,idle
2026-01-29T16:01:50.186710,0.058,0.022,1.041,-0.051,0.163,-0.152,1.043,0.228,idle
2026-01-29T16:01:50.217695,0.056,0.02,1.039,0.019,0.023,-0.152,1.041,0.154,idle
2026-01-29T16:01:50.239266,0.056,0.02,1.039,0.019,0.023,-0.152,1.041,0.154,idle
2026-01-29T16:01:50.272401,0.056,0.02,1.039,0.019,0.023,-0.152,1.041,0.154,idle
2026-01-29T16:01:50.304424,0.056,0.02,1.039,0.019,0.023,-0.152,1.041,0.154,idle
2026-01-29T16:01:50.338577,0.056,0.02,1.039,0.019,0.023,-0.152,1.041,0.154,idle
2026-01-29T16:01:50.367137,0.056,0.02,1.039,0.019,0.023,-0.152,1.041,0.154,idle
2026-01-29T16:01:50.396615,0.056,0.02,1.039,0.019,0.023,-0.152,1.041,0.154,idle
2026-01-29T16:01:50.419504,0.056,0.02,1.039,0.019,0.023,-0.152,1.041,0.154,idle
2026-01-29T16:01:50.429776,0.056,0.02,1.039,0.019,0.023,-0.152,1.041,0.154,idle
2026-01-29T16:01:50.472314,0.056,0.02,1.039,0.019,0.023,-0.152,1.041,0.154,idle
2026-01-29T16:01:50.489375,0.056,0.021,1.041,0.089,0.023,-0.152,1.043,0.177,idle
2026-01-29T16:01:50.518387,0.056,0.021,1.041,0.089,0.023,-0.152,1.043,0.177,idle
2026-01-29T16:01:50.551750,0.056,0.021,1.041,0.089,0.023,-0.152,1.043,0.177,idle
2026-01-29T16:01:50.583529,0.056,0.021,1.041,0.089,0.023,-0.152,1.043,0.177,idle
2026-01-29T16:01:50.615045,0.056,0.021,1.041,0.089,0.023,-0.152,1.043,0.177,idle
2026-01-29T16:01:50.647252,0.056,0.021,1.041,0.089,0.023,-0.152,1.043,0.177,idle
2026-01-29T16:01:50.687454,0.056,0.021,1.041,0.089,0.023,-0.152,1.043,0.177,idle
2026-01-29T16:01:50.699508,0.056,0.021,1.041,0.089,0.023,-0.152,1.043,0.177,idle
2026-01-29T16:01:50.732027,0.056,0.021,1.041,0.089,0.023,-0.152,1.043,0.177,idle
2026-01-29T16:01:50.757878,0.056,0.021,1.041,0.089,0.023,-0.152,1.043,0.177,idle
2026-01-29T16:01:50.784223,0.056,0.021,1.041,0.089,0.023,-0.152,1.043,0.177,idle
2026-01-29T16:01:50.815007,0.056,0.021,1.041,0.089,0.023,-0.152,1.043,0.177,idle
2026-01-29T16:01:50.845913,0.058,0.02,1.039,0.019,0.093,-0.082,1.041,0.125,idle
2026-01-29T16:01:50.887195,0.058,0.02,1.039,0.019,0.093,-0.082,1.041,0.125,idle
2026-01-29T16:01:50.914240,0.058,0.02,1.039,0.019,0.093,-0.082,1.041,0.125,idle
2026-01-29T16:01:50.945401,0.058,0.02,1.039,0.019,0.093,-0.082,1.041,0.125,idle
2026-01-29T16:01:50.987190,0.058,0.02,1.039,0.019,0.093,-0.082,1.041,0.125,idle
2026-01-29T16:01:50.998359,0.058,0.02,1.039,0.019,0.093,-0.082,1.041,0.125,idle
2026-01-29T16:01:51.030345,0.058,0.02,1.039,0.019,0.093,-0.082,1.041,0.125,idle
2026-01-29T16:01:51.058221,0.058,0.02,1.039,0.019,0.093,-0.082,1.041,0.125,idle
2026-01-29T16:01:51.082415,0.058,0.02,1.039,0.019,0.093,-0.082,1.041,0.125,idle
2026-01-29T16:01:51.103593,0.058,0.02,1.039,0.019,0.093,-0.082,1.041,0.125,idle
2026-01-29T16:01:51.118821,0.058,0.02,1.039,0.019,0.093,-0.082,1.041,0.125,idle
2026-01-29T16:01:51.145521,0.058,0.02,1.039,0.019,0.093,-0.082,1.041,0.125,idle
2026-01-29T16:01:51.167392,0.058,0.02,1.039,0.019,0.093,-0.082,1.041,0.125,idle
2026-01-29T16:01:51.178718,0.01,-0.043,1.081,-15.521,0.303,-8.902,1.082,17.895,idle
2026-01-29T16:01:51.220289,0.01,-0.043,1.081,-15.521,0.303,-8.902,1.082,17.895,idle
2026-01-29T16:01:51.249293,0.01,-0.043,1.081,-15.521,0.303,-8.902,1.082,17.895,idle
2026-01-29T16:01:51.271569,0.01,-0.043,1.081,-15.521,0.303,-8.902,1.082,17.895,idle
2026-01-29T16:01:51.304046,0.01,-0.043,1.081,-15.521,0.303,-8.902,1.082,17.895,idle
2026-01-29T16:01:51.325299,0.01,-0.043,1.081,-15.521,0.303,-8.902,1.082,17.895,idle
2026-01-29T16:01:51.355907,0.01,-0.043,1.081,-15.521,0.303,-8.902,1.082,17.895,idle
2026-01-29T16:01:51.388682,0.01,-0.043,1.081,-15.521,0.303,-8.902,1.082,17.895,idle
2026-01-29T16:01:51.415190,0.01,-0.043,1.081,-15.521,0.303,-8.902,1.082,17.895,idle
2026-01-29T16:01:51.447045,0.01,-0.043,1.081,-15.521,0.303,-8.902,1.082,17.895,idle
2026-01-29T16:01:51.478190,0.01,-0.043,1.081,-15.521,0.303,-8.902,1.082,17.895,idle
2026-01-29T16:01:51.519528,0.01,-0.043,1.081,-15.521,0.303,-8.902,1.082,17.895,idle
2026-01-29T16:01:51.540077,0.063,-0.213,1.025,-47.931,-3.617,1.808,1.048,48.101,idle
2026-01-29T16:01:51.569967,0.063,-0.213,1.025,-47.931,-3.617,1.808,1.048,48.101,idle
2026-01-29T16:01:51.604000,0.063,-0.213,1.025,-47.931,-3.617,1.808,1.048,48.101,idle
2026-01-29T16:01:51.635766,0.063,-0.213,1.025,-47.931,-3.617,1.808,1.048,48.101,idle
2026-01-29T16:01:51.667746,0.063,-0.213,1.025,-47.931,-3.617,1.808,1.048,48.101,idle
2026-01-29T16:01:51.699585,0.063,-0.213,1.025,-47.931,-3.617,1.808,1.048,48.101,idle
2026-01-29T16:01:51.720382,0.063,-0.213,1.025,-47.931,-3.617,1.808,1.048,48.101,idle
2026-01-29T16:01:51.747624,0.063,-0.213,1.025,-47.931,-3.617,1.808,1.048,48.101,idle
2026-01-29T16:01:51.772475,0.063,-0.213,1.025,-47.931,-3.617,1.808,1.048,48.101,idle
2026-01-29T16:01:51.804491,0.063,-0.213,1.025,-47.931,-3.617,1.808,1.048,48.101,idle
2026-01-29T16:01:51.838959,0.063,-0.213,1.025,-47.931,-3.617,1.808,1.048,48.101,idle
2026-01-29T16:01:51.874925,0.063,-0.213,1.025,-47.931,-3.617,1.808,1.048,48.101,idle
2026-01-29T16:01:51.893923,0.069,-0.48,0.865,-14.961,-2.287,-2.392,0.991,15.323,idle
2026-01-29T16:01:51.929152,0.069,-0.48,0.865,-14.961,-2.287,-2.392,0.991,15.323,idle
2026-01-29T16:01:51.972553,0.069,-0.48,0.865,-14.961,-2.287,-2.392,0.991,15.323,idle
2026-01-29T16:01:52.002225,0.069,-0.48,0.865,-14.961,-2.287,-2.392,0.991,15.323,idle
2026-01-29T16:01:52.031536,0.069,-0.48,0.865,-14.961,-2.287,-2.392,0.991,15.323,idle
2026-01-29T16:01:52.063515,0.069,-0.48,0.865,-14.961,-2.287,-2.392,0.991,15.323,idle
2026-01-29T16:01:52.075289,0.069,-0.48,0.865,-14.961,-2.287,-2.392,0.991,15.323,idle
2026-01-29T16:01:52.105479,0.069,-0.48,0.865,-14.961,-2.287,-2.392,0.991,15.323,idle
2026-01-29T16:01:52.137727,0.069,-0.48,0.865,-14.961,-2.287,-2.392,0.991,15.323,idle
2026-01-29T16:01:52.169364,0.069,-0.48,0.865,-14.961,-2.287,-2.392,0.991,15.323,idle
2026-01-29T16:01:52.194816,0.069,-0.48,0.865,-14.961,-2.287,-2.392,0.991,15.323,idle
2026-01-29T16:01:52.221726,0.069,-0.48,0.865,-14.961,-2.287,-2.392,0.991,15.323,idle
2026-01-29T16:01:52.252470,0.069,-0.48,0.865,-14.961,-2.287,-2.392,0.991,15.323,idle
2026-01-29T16:01:52.257016,0.209,-0.069,1.065,67.919,-22.237,-14.012,1.087,72.827,idle
2026-01-29T16:01:52.284709,0.209,-0.069,1.065,67.919,-22.237,-14.012,1.087,72.827,idle
2026-01-29T16:01:52.317054,0.209,-0.069,1.065,67.919,-22.237,-14.012,1.087,72.827,idle
2026-01-29T16:01:52.348371,0.209,-0.069,1.065,67.919,-22.237,-14.012,1.087,72.827,idle
2026-01-29T16:01:52.380055,0.209,-0.069,1.065,67.919,-22.237,-14.012,1.087,72.827,idle
2026-01-29T16:01:52.421356,0.209,-0.069,1.065,67.919,-22.237,-14.012,1.087,72.827,idle
2026-01-29T16:01:52.439707,0.209,-0.069,1.065,67.919,-22.237,-14.012,1.087,72.827,idle
2026-01-29T16:01:52.463984,0.209,-0.069,1.065,67.919,-22.237,-14.012,1.087,72.827,idle
2026-01-29T16:01:52.495338,0.209,-0.069,1.065,67.919,-22.237,-14.012,1.087,72.827,idle
2026-01-29T16:01:52.537773,0.209,-0.069,1.065,67.919,-22.237,-14.012,1.087,72.827,idle
2026-01-29T16:01:52.559571,0.209,0.019,1.071,27.249,8.423,-1.902,1.091,28.584,idle
2026-01-29T16:01:52.589877,0.209,0.019,1.071,27.249,8.423,-1.902,1.091,28.584,idle
2026-01-29T16:01:52.612829,0.209,0.019,1.071,27.249,8.423,-1.902,1.091,28.584,idle
2026-01-29T16:01:52.654326,0.209,0.019,1.071,27.249,8.423,-1.902,1.091,28.584,idle
2026-01-29T16:01:52.686057,0.209,0.019,1.071,27.249,8.423,-1.902,1.091,28.584,idle
2026-01-29T16:01:52.722105,0.209,0.019,1.071,27.249,8.423,-1.902,1.091,28.584,idle
2026-01-29T16:01:52.738820,0.209,0.019,1.071,27.249,8.423,-1.902,1.091,28.584,idle
2026-01-29T16:01:52.768504,0.209,0.019,1.071,27.249,8.423,-1.902,1.091,28.584,idle
2026-01-29T16:01:52.799234,0.209,0.019,1.071,27.249,8.423,-1.902,1.091,28.584,idle
2026-01-29T16:01:52.822312,0.209,0.019,1.071,27.249,8.423,-1.902,1.091,28.584,idle
2026-01-29T16:01:52.854093,0.209,0.019,1.071,27.249,8.423,-1.902,1.091,28.584,idle
2026-01-29T16:01:52.888640,0.209,0.019,1.071,27.249,8.423,-1.902,1.091,28.584,idle
2026-01-29T16:01:52.917799,0.209,0.019,1.071,27.249,8.423,-1.902,1.091,28.584,idle
2026-01-29T16:01:52.950098,0.203,0.29,0.925,-10.411,10.663,-6.592,0.99,16.295,idle
2026-01-29T16:01:52.982475,0.203,0.29,0.925,-10.411,10.663,-6.592,0.99,16.295,idle
2026-01-29T16:01:53.021385,0.203,0.29,0.925,-10.411,10.663,-6.592,0.99,16.295,idle
2026-01-29T16:01:53.054714,0.203,0.29,0.925,-10.411,10.663,-6.592,0.99,16.295,idle
2026-01-29T16:01:53.087801,0.203,0.29,0.925,-10.411,10.663,-6.592,0.99,16.295,idle
2026-01-29T16:01:53.137304,0.203,0.29,0.925,-10.411,10.663,-6.592,0.99,16.295,idle
2026-01-29T16:01:53.158865,0.203,0.29,0.925,-10.411,10.663,-6.592,0.99,16.295,idle
2026-01-29T16:01:53.189612,0.203,0.29,0.925,-10.411,10.663,-6.592,0.99,16.295,idle
2026-01-29T16:01:53.220203,0.203,0.29,0.925,-10.411,10.663,-6.592,0.99,16.295,idle
2026-01-29T16:01:53.251794,0.203,0.29,0.925,-10.411,10.663,-6.592,0.99,16.295,idle
2026-01-29T16:01:53.275055,0.164,0.143,1.012,-37.221,2.543,-2.112,1.035,37.368,idle
2026-01-29T16:01:53.305268,0.164,0.143,1.012,-37.221,2.543,-2.112,1.035,37.368,idle
2026-01-29T16:01:53.338982,0.164,0.143,1.012,-37.221,2.543,-2.112,1.035,37.368,idle
2026-01-29T16:01:53.365034,0.164,0.143,1.012,-37.221,2.543,-2.112,1.035,37.368,idle
2026-01-29T16:01:53.404047,0.164,0.143,1.012,-37.221,2.543,-2.112,1.035,37.368,idle
2026-01-29T16:01:53.432900,0.164,0.143,1.012,-37.221,2.543,-2.112,1.035,37.368,idle
2026-01-29T16:01:53.460002,0.164,0.143,1.012,-37.221,2.543,-2.112,1.035,37.368,idle
2026-01-29T16:01:53.488298,0.164,0.143,1.012,-37.221,2.543,-2.112,1.035,37.368,idle
2026-01-29T16:01:53.517391,0.164,0.143,1.012,-37.221,2.543,-2.112,1.035,37.368,idle
2026-01-29T16:01:53.548693,0.164,0.143,1.012,-37.221,2.543,-2.112,1.035,37.368,idle
2026-01-29T16:01:53.578815,0.164,0.143,1.012,-37.221,2.543,-2.112,1.035,37.368,idle
2026-01-29T16:01:53.607024,0.164,0.143,1.012,-37.221,2.543,-2.112,1.035,37.368,idle
2026-01-29T16:01:53.632462,0.164,0.143,1.012,-37.221,2.543,-2.112,1.035,37.368,idle
2026-01-29T16:01:53.672233,0.147,-0.047,1.001,-70.121,46.783,-8.062,1.013,84.679,idle
2026-01-29T16:01:53.703634,0.147,-0.047,1.001,-70.121,46.783,-8.062,1.013,84.679,idle
2026-01-29T16:01:53.736166,0.147,-0.047,1.001,-70.121,46.783,-8.062,1.013,84.679,idle
2026-01-29T16:01:53.770434,0.147,-0.047,1.001,-70.121,46.783,-8.062,1.013,84.679,idle
2026-01-29T16:01:53.798284,0.147,-0.047,1.001,-70.121,46.783,-8.062,1.013,84.679,idle
2026-01-29T16:01:53.821023,0.147,-0.047,1.001,-70.121,46.783,-8.062,1.013,84.679,idle
2026-01-29T16:01:53.850190,0.147,-0.047,1.001,-70.121,46.783,-8.062,1.013,84.679,idle
2026-01-29T16:01:53.879290,0.147,-0.047,1.001,-70.121,46.783,-8.062,1.013,84.679,idle
2026-01-29T16:01:53.904099,0.147,-0.047,1.001,-70.121,46.783,-8.062,1.013,84.679,idle
2026-01-29T16:01:53.932213,0.147,-0.047,1.001,-70.121,46.783,-8.062,1.013,84.679,idle
2026-01-29T16:01:53.972174,0.081,-0.049,1.028,4.429,-1.167,-0.152,1.032,4.583,idle
2026-01-29T16:01:54.017077,0.081,-0.049,1.028,4.429,-1.167,-0.152,1.032,4.583,idle
2026-01-29T16:01:54.048796,0.081,-0.049,1.028,4.429,-1.167,-0.152,1.032,4.583,idle
2026-01-29T16:01:54.085438,0.081,-0.049,1.028,4.429,-1.167,-0.152,1.032,4.583,idle
2026-01-29T16:01:54.119825,0.081,-0.049,1.028,4.429,-1.167,-0.152,1.032,4.583,idle
2026-01-29T16:01:54.148795,0.081,-0.049,1.028,4.429,-1.167,-0.152,1.032,4.583,idle
2026-01-29T16:01:54.176807,0.081,-0.049,1.028,4.429,-1.167,-0.152,1.032,4.583,idle
2026-01-29T16:01:54.220682,0.081,-0.049,1.028,4.429,-1.167,-0.152,1.032,4.583,idle
2026-01-29T16:01:54.238297,0.052,-0.017,1.042,0.439,-0.117,-0.152,1.043,0.479,idle
2026-01-29T16:01:54.269761,0.052,-0.017,1.042,0.439,-0.117,-0.152,1.043,0.479,idle
2026-01-29T16:01:54.303850,0.052,-0.017,1.042,0.439,-0.117,-0.152,1.043,0.479,idle
2026-01-29T16:01:54.335809,0.052,-0.017,1.042,0.439,-0.117,-0.152,1.043,0.479,idle
2026-01-29T16:01:54.363835,0.052,-0.017,1.042,0.439,-0.117,-0.152,1.043,0.479,idle
2026-01-29T16:01:54.404938,0.052,-0.017,1.042,0.439,-0.117,-0.152,1.043,0.479,idle
2026-01-29T16:01:54.420266,0.052,-0.017,1.042,0.439,-0.117,-0.152,1.043,0.479,idle
2026-01-29T16:01:54.448013,0.052,-0.017,1.042,0.439,-0.117,-0.152,1.043,0.479,idle
2026-01-29T16:01:54.479556,0.052,-0.017,1.042,0.439,-0.117,-0.152,1.043,0.479,idle
2026-01-29T16:01:54.521360,0.052,-0.017,1.042,0.439,-0.117,-0.152,1.043,0.479,idle
2026-01-29T16:01:54.539842,0.05,-0.01,1.039,0.229,0.023,-0.152,1.041,0.275,idle
2026-01-29T16:01:54.563947,0.05,-0.01,1.039,0.229,0.023,-0.152,1.041,0.275,idle
2026-01-29T16:01:54.599849,0.05,-0.01,1.039,0.229,0.023,-0.152,1.041,0.275,idle
2026-01-29T16:01:54.636607,0.05,-0.01,1.039,0.229,0.023,-0.152,1.041,0.275,idle
2026-01-29T16:01:54.665248,0.05,-0.01,1.039,0.229,0.023,-0.152,1.041,0.275,idle
2026-01-29T16:01:54.690501,0.05,-0.01,1.039,0.229,0.023,-0.152,1.041,0.275,idle
2026-01-29T16:01:54.714469,0.05,-0.01,1.039,0.229,0.023,-0.152,1.041,0.275,idle
2026-01-29T16:01:54.747496,0.05,-0.01,1.039,0.229,0.023,-0.152,1.041,0.275,idle
2026-01-29T16:01:54.778421,0.05,-0.01,1.039,0.229,0.023,-0.152,1.041,0.275,idle
2026-01-29T16:01:54.807271,0.05,-0.01,1.039,0.229,0.023,-0.152,1.041,0.275,idle
2026-01-29T16:01:54.830624,0.05,-0.01,1.039,0.229,0.023,-0.152,1.041,0.275,idle
2026-01-29T16:01:54.836581,0.054,-0.014,1.038,0.159,-0.047,-0.152,1.039,0.225,idle
2026-01-29T16:01:54.860951,0.054,-0.014,1.038,0.159,-0.047,-0.152,1.039,0.225,idle
2026-01-29T16:01:54.890306,0.054,-0.014,1.038,0.159,-0.047,-0.152,1.039,0.225,idle
2026-01-29T16:01:54.913775,0.054,-0.014,1.038,0.159,-0.047,-0.152,1.039,0.225,idle
2026-01-29T16:01:54.953777,0.054,-0.014,1.038,0.159,-0.047,-0.152,1.039,0.225,idle
2026-01-29T16:01:54.984601,0.054,-0.014,1.038,0.159,-0.047,-0.152,1.039,0.225,idle
2026-01-29T16:01:55.016443,0.054,-0.014,1.038,0.159,-0.047,-0.152,1.039,0.225,idle
2026-01-29T16:01:55.050024,0.054,-0.014,1.038,0.159,-0.047,-0.152,1.039,0.225,idle
2026-01-29T16:01:55.073856,0.054,-0.014,1.038,0.159,-0.047,-0.152,1.039,0.225,idle
2026-01-29T16:01:55.102950,0.054,-0.014,1.038,0.159,-0.047,-0.152,1.039,0.225,idle
2026-01-29T16:03:47.552243,0,0,0,0,0,0,0,0,idle
2026-01-29T16:03:47.573873,0.066,0.026,1.073,1.699,-0.537,-1.342,1.076,2.23,idle
2026-01-29T16:03:47.603533,0.066,0.026,1.073,1.699,-0.537,-1.342,1.076,2.23,idle
2026-01-29T16:03:47.637669,0.066,0.026,1.073,1.699,-0.537,-1.342,1.076,2.23,idle
2026-01-29T16:03:47.668702,0.066,0.026,1.073,1.699,-0.537,-1.342,1.076,2.23,idle
2026-01-29T16:03:47.701456,0.066,0.026,1.073,1.699,-0.537,-1.342,1.076,2.23,idle
2026-01-29T16:03:47.726147,0.074,0.062,1.036,-0.261,0.163,-0.222,1.04,0.379,idle
2026-01-29T16:03:47.754343,0.074,0.062,1.036,-0.261,0.163,-0.222,1.04,0.379,idle
2026-01-29T16:03:47.786330,0.074,0.062,1.036,-0.261,0.163,-0.222,1.04,0.379,idle
2026-01-29T16:03:47.817742,0.074,0.062,1.036,-0.261,0.163,-0.222,1.04,0.379,idle
2026-01-29T16:03:47.849532,0.074,0.062,1.036,-0.261,0.163,-0.222,1.04,0.379,idle
2026-01-29T16:03:47.881198,0.074,0.062,1.036,-0.261,0.163,-0.222,1.04,0.379,idle
2026-01-29T16:03:47.913220,0.074,0.062,1.036,-0.261,0.163,-0.222,1.04,0.379,idle
2026-01-29T16:03:47.939345,0.074,0.062,1.036,-0.261,0.163,-0.222,1.04,0.379,idle
2026-01-29T16:03:47.965387,0.074,0.062,1.036,-0.261,0.163,-0.222,1.04,0.379,idle
2026-01-29T16:03:47.997010,0.074,0.062,1.036,-0.261,0.163,-0.222,1.04,0.379,idle
2026-01-29T16:03:48.023104,0.061,0.049,1.035,0.929,0.023,2.018,1.038,2.222,idle
2026-01-29T16:03:48.053725,0.061,0.049,1.035,0.929,0.023,2.018,1.038,2.222,idle
2026-01-29T16:03:48.081976,0.061,0.049,1.035,0.929,0.023,2.018,1.038,2.222,idle
2026-01-29T16:03:48.114388,0.061,0.049,1.035,0.929,0.023,2.018,1.038,2.222,idle
2026-01-29T16:03:48.144008,0.061,0.049,1.035,0.929,0.023,2.018,1.038,2.222,idle
2026-01-29T16:03:48.148662,0.061,0.049,1.035,0.929,0.023,2.018,1.038,2.222,idle
2026-01-29T16:03:48.186366,0.061,0.049,1.035,0.929,0.023,2.018,1.038,2.222,idle
2026-01-29T16:03:48.210693,0.061,0.049,1.035,0.929,0.023,2.018,1.038,2.222,idle
2026-01-29T16:03:48.238895,0.061,0.049,1.035,0.929,0.023,2.018,1.038,2.222,idle
2026-01-29T16:03:48.270620,0.061,0.049,1.035,0.929,0.023,2.018,1.038,2.222,idle
2026-01-29T16:03:48.298560,0.069,0.046,1.039,-1.871,0.443,-1.342,1.042,2.345,idle
2026-01-29T16:03:48.331002,0.069,0.046,1.039,-1.871,0.443,-1.342,1.042,2.345,idle
2026-01-29T16:03:48.371086,0.069,0.046,1.039,-1.871,0.443,-1.342,1.042,2.345,idle
2026-01-29T16:03:48.404338,0.069,0.046,1.039,-1.871,0.443,-1.342,1.042,2.345,idle
2026-01-29T16:03:48.420954,0.069,0.046,1.039,-1.871,0.443,-1.342,1.042,2.345,idle
2026-01-29T16:03:48.446578,0.069,0.046,1.039,-1.871,0.443,-1.342,1.042,2.345,idle
2026-01-29T16:03:48.478372,0.069,0.046,1.039,-1.871,0.443,-1.342,1.042,2.345,idle
2026-01-29T16:03:48.519975,0.069,0.046,1.039,-1.871,0.443,-1.342,1.042,2.345,idle
2026-01-29T16:03:48.541095,0.063,0.035,1.035,-0.541,0.233,0.408,1.037,0.717,idle
2026-01-29T16:03:48.570636,0.063,0.035,1.035,-0.541,0.233,0.408,1.037,0.717,idle
2026-01-29T16:03:48.603446,0.063,0.035,1.035,-0.541,0.233,0.408,1.037,0.717,idle
2026-01-29T16:03:48.634007,0.063,0.035,1.035,-0.541,0.233,0.408,1.037,0.717,idle
2026-01-29T16:03:48.664567,0.063,0.035,1.035,-0.541,0.233,0.408,1.037,0.717,idle
2026-01-29T16:03:48.687185,0.063,0.035,1.035,-0.541,0.233,0.408,1.037,0.717,idle
2026-01-29T16:03:48.720626,0.063,0.035,1.035,-0.541,0.233,0.408,1.037,0.717,idle
2026-01-29T16:03:48.750758,0.063,0.035,1.035,-0.541,0.233,0.408,1.037,0.717,idle
2026-01-29T16:03:48.784354,0.063,0.035,1.035,-0.541,0.233,0.408,1.037,0.717,idle
2026-01-29T16:03:48.808458,0.064,0.035,1.039,-0.611,0.303,-0.152,1.041,0.699,idle
2026-01-29T16:03:48.835030,0.064,0.035,1.039,-0.611,0.303,-0.152,1.041,0.699,idle
2026-01-29T16:03:48.866514,0.064,0.035,1.039,-0.611,0.303,-0.152,1.041,0.699,idle
2026-01-29T16:03:48.899788,0.064,0.035,1.039,-0.611,0.303,-0.152,1.041,0.699,idle
2026-01-29T16:03:48.932843,0.064,0.035,1.039,-0.611,0.303,-0.152,1.041,0.699,idle
2026-01-29T16:03:48.955116,0.064,0.035,1.039,-0.611,0.303,-0.152,1.041,0.699,idle
2026-01-29T16:03:48.985794,0.064,0.035,1.039,-0.611,0.303,-0.152,1.041,0.699,idle
2026-01-29T16:03:49.015963,0.064,0.035,1.039,-0.611,0.303,-0.152,1.041,0.699,idle
2026-01-29T16:03:49.021127,0.064,0.035,1.039,-0.611,0.303,-0.152,1.041,0.699,idle
2026-01-29T16:03:49.053837,0.064,0.035,1.039,-0.611,0.303,-0.152,1.041,0.699,idle
2026-01-29T16:03:49.080094,0.064,0.035,1.039,-0.611,0.303,-0.152,1.041,0.699,idle
2026-01-29T16:17:04.032126,0,0,0,0,0,0,0,0,idle
2026-01-29T16:17:04.060359,0.059,0.022,1.023,0.159,0.093,-0.432,1.025,0.469,idle
2026-01-29T16:17:04.091946,0.059,0.022,1.023,0.159,0.093,-0.432,1.025,0.469,idle
2026-01-29T16:17:04.113838,0.059,0.022,1.023,0.159,0.093,-0.432,1.025,0.469,idle
2026-01-29T16:17:04.148687,0.059,0.022,1.023,0.159,0.093,-0.432,1.025,0.469,idle
2026-01-29T16:17:04.175965,0.059,0.022,1.023,0.159,0.093,-0.432,1.025,0.469,idle
2026-01-29T16:17:04.186486,0.059,0.022,1.023,0.159,0.093,-0.432,1.025,0.469,idle
2026-01-29T16:17:04.210861,0.059,0.022,1.023,0.159,0.093,-0.432,1.025,0.469,idle
2026-01-29T16:17:04.239607,0.059,0.022,1.023,0.159,0.093,-0.432,1.025,0.469,idle
2026-01-29T16:17:04.282174,0.057,0.028,1.029,-0.751,0.163,-0.432,1.031,0.881,idle
2026-01-29T16:17:04.308805,0.057,0.028,1.029,-0.751,0.163,-0.432,1.031,0.881,idle
2026-01-29T16:17:04.341032,0.057,0.028,1.029,-0.751,0.163,-0.432,1.031,0.881,idle
2026-01-29T16:17:04.382475,0.057,0.028,1.029,-0.751,0.163,-0.432,1.031,0.881,idle
2026-01-29T16:17:04.396008,0.057,0.028,1.029,-0.751,0.163,-0.432,1.031,0.881,idle
2026-01-29T16:17:04.425810,0.057,0.028,1.029,-0.751,0.163,-0.432,1.031,0.881,idle
2026-01-29T16:17:04.452697,0.057,0.028,1.029,-0.751,0.163,-0.432,1.031,0.881,idle
2026-01-29T16:17:04.478428,0.057,0.028,1.029,-0.751,0.163,-0.432,1.031,0.881,idle
2026-01-29T16:17:04.509584,0.057,0.028,1.029,-0.751,0.163,-0.432,1.031,0.881,idle
2026-01-29T16:17:04.548683,0.057,0.023,1.024,-0.121,0.023,-0.362,1.026,0.382,idle
2026-01-29T16:17:04.574170,0.057,0.023,1.024,-0.121,0.023,-0.362,1.026,0.382,idle
2026-01-29T16:17:04.600459,0.057,0.023,1.024,-0.121,0.023,-0.362,1.026,0.382,idle
2026-01-29T16:17:04.626981,0.057,0.023,1.024,-0.121,0.023,-0.362,1.026,0.382,idle
2026-01-29T16:17:04.662908,0.057,0.023,1.024,-0.121,0.023,-0.362,1.026,0.382,idle
2026-01-29T16:17:04.696405,0.057,0.023,1.024,-0.121,0.023,-0.362,1.026,0.382,idle
2026-01-29T16:17:04.720516,0.057,0.023,1.024,-0.121,0.023,-0.362,1.026,0.382,idle
2026-01-29T16:17:04.752243,0.057,0.023,1.024,-0.121,0.023,-0.362,1.026,0.382,idle
2026-01-29T16:17:04.781778,0.057,0.023,1.024,-0.121,0.023,-0.362,1.026,0.382,idle
2026-01-29T16:17:04.814808,0.052,0.014,1.031,0.369,0.093,-0.502,1.032,0.629,idle
2026-01-29T16:17:04.844815,0.052,0.014,1.031,0.369,0.093,-0.502,1.032,0.629,idle
2026-01-29T16:17:04.876332,0.052,0.014,1.031,0.369,0.093,-0.502,1.032,0.629,idle
2026-01-29T16:17:04.905189,0.052,0.014,1.031,0.369,0.093,-0.502,1.032,0.629,idle
2026-01-29T16:17:04.936386,0.052,0.014,1.031,0.369,0.093,-0.502,1.032,0.629,idle
2026-01-29T16:17:04.959381,0.052,0.014,1.031,0.369,0.093,-0.502,1.032,0.629,idle
2026-01-29T16:17:04.990462,0.052,0.014,1.031,0.369,0.093,-0.502,1.032,0.629,idle
2026-01-29T16:17:05.022417,0.052,0.014,1.031,0.369,0.093,-0.502,1.032,0.629,idle
2026-01-29T16:17:05.049098,0.052,0.014,1.031,0.369,0.093,-0.502,1.032,0.629,idle
2026-01-29T16:17:05.056143,0.058,0.02,1.026,-0.121,0.093,-0.362,1.028,0.392,idle
2026-01-29T16:17:05.080285,0.058,0.02,1.026,-0.121,0.093,-0.362,1.028,0.392,idle
2026-01-29T16:17:05.114703,0.058,0.02,1.026,-0.121,0.093,-0.362,1.028,0.392,idle
2026-01-29T16:17:05.140504,0.058,0.02,1.026,-0.121,0.093,-0.362,1.028,0.392,idle
2026-01-29T16:17:05.167032,0.058,0.02,1.026,-0.121,0.093,-0.362,1.028,0.392,idle
2026-01-29T16:17:05.198718,0.058,0.02,1.026,-0.121,0.093,-0.362,1.028,0.392,idle
2026-01-29T16:17:05.227361,0.058,0.02,1.026,-0.121,0.093,-0.362,1.028,0.392,idle
2026-01-29T16:17:05.258500,0.058,0.02,1.026,-0.121,0.093,-0.362,1.028,0.392,idle
2026-01-29T16:17:05.289934,0.058,0.02,1.026,-0.121,0.093,-0.362,1.028,0.392,idle
2026-01-29T16:17:05.318750,0.058,0.02,1.026,-0.121,0.093,-0.362,1.028,0.392,idle
2026-01-29T16:17:05.352310,0.055,0.018,1.028,0.299,-0.047,-0.502,1.03,0.586,idle
2026-01-29T16:17:05.375136,0.055,0.018,1.028,0.299,-0.047,-0.502,1.03,0.586,idle
2026-01-29T16:17:05.403382,0.055,0.018,1.028,0.299,-0.047,-0.502,1.03,0.586,idle
2026-01-29T16:17:05.429050,0.055,0.018,1.028,0.299,-0.047,-0.502,1.03,0.586,idle
2026-01-29T16:17:05.463055,0.055,0.018,1.028,0.299,-0.047,-0.502,1.03,0.586,idle
2026-01-29T16:17:05.476224,0.055,0.018,1.028,0.299,-0.047,-0.502,1.03,0.586,idle
2026-01-29T16:17:05.515316,0.055,0.018,1.028,0.299,-0.047,-0.502,1.03,0.586,idle
2026-01-29T16:17:05.536619,0.055,0.018,1.028,0.299,-0.047,-0.502,1.03,0.586,idle
2026-01-29T16:17:05.575990,0.055,0.018,1.028,0.299,-0.047,-0.502,1.03,0.586,idle
2026-01-29T16:17:05.594802,0.055,0.018,1.028,0.299,-0.047,-0.502,1.03,0.586,idle
2026-01-29T16:17:05.630239,0.055,0.018,1.028,0.299,-0.047,-0.502,1.03,0.586,idle
2026-01-29T16:17:05.652202,0.057,0.019,1.031,-0.401,-0.117,-0.362,1.033,0.553,idle
2026-01-29T16:17:05.679887,0.057,0.019,1.031,-0.401,-0.117,-0.362,1.033,0.553,idle
2026-01-29T16:17:05.706590,0.057,0.019,1.031,-0.401,-0.117,-0.362,1.033,0.553,idle
2026-01-29T16:17:05.740231,0.057,0.019,1.031,-0.401,-0.117,-0.362,1.033,0.553,idle
2026-01-29T16:17:05.772946,0.057,0.019,1.031,-0.401,-0.117,-0.362,1.033,0.553,idle
2026-01-29T16:17:05.806205,0.057,0.019,1.031,-0.401,-0.117,-0.362,1.033,0.553,idle
2026-01-29T16:17:05.829434,0.057,0.019,1.031,-0.401,-0.117,-0.362,1.033,0.553,idle
2026-01-29T16:17:05.858439,0.057,0.019,1.031,-0.401,-0.117,-0.362,1.033,0.553,idle
2026-01-29T16:17:05.867815,0.057,0.019,1.031,-0.401,-0.117,-0.362,1.033,0.553,idle
2026-01-29T16:17:05.894039,0.057,0.019,1.031,-0.401,-0.117,-0.362,1.033,0.553,idle
2026-01-29T16:17:05.925937,0.057,0.019,1.031,-0.401,-0.117,-0.362,1.033,0.553,idle
2026-01-29T16:17:05.959507,0.057,0.019,1.031,-0.401,-0.117,-0.362,1.033,0.553,idle
2026-01-29T16:17:05.981918,0.057,0.019,1.031,-0.401,-0.117,-0.362,1.033,0.553,idle
2026-01-29T16:17:06.007879,0.025,-0.049,1.048,-0.331,-0.047,11.258,1.05,11.263,idle
2026-01-29T16:17:06.043364,0.025,-0.049,1.048,-0.331,-0.047,11.258,1.05,11.263,idle
2026-01-29T16:17:06.079342,0.025,-0.049,1.048,-0.331,-0.047,11.258,1.05,11.263,idle
2026-01-29T16:17:06.107607,0.025,-0.049,1.048,-0.331,-0.047,11.258,1.05,11.263,idle
2026-01-29T16:17:06.136561,0.025,-0.049,1.048,-0.331,-0.047,11.258,1.05,11.263,idle
2026-01-29T16:17:06.166109,0.025,-0.049,1.048,-0.331,-0.047,11.258,1.05,11.263,idle
2026-01-29T16:17:06.196975,0.025,-0.049,1.048,-0.331,-0.047,11.258,1.05,11.263,idle
2026-01-29T16:17:06.219815,0.025,-0.049,1.048,-0.331,-0.047,11.258,1.05,11.263,idle
2026-01-29T16:17:06.248775,0.025,-0.049,1.048,-0.331,-0.047,11.258,1.05,11.263,idle
2026-01-29T16:17:06.256275,0.025,-0.049,1.048,-0.331,-0.047,11.258,1.05,11.263,idle
2026-01-29T16:17:06.278711,0.025,-0.049,1.048,-0.331,-0.047,11.258,1.05,11.263,idle
2026-01-29T16:17:06.300925,0.025,-0.049,1.048,-0.331,-0.047,11.258,1.05,11.263,idle
2026-01-29T16:17:06.315623,0.268,0.177,1.162,-22.311,-2.427,-12.192,1.206,25.54,idle
2026-01-29T16:17:06.343210,0.268,0.177,1.162,-22.311,-2.427,-12.192,1.206,25.54,idle
2026-01-29T16:17:06.372751,0.268,0.177,1.162,-22.311,-2.427,-12.192,1.206,25.54,idle
2026-01-29T16:17:06.401618,0.268,0.177,1.162,-22.311,-2.427,-12.192,1.206,25.54,idle
2026-01-29T16:17:06.432582,0.268,0.177,1.162,-22.311,-2.427,-12.192,1.206,25.54,idle
2026-01-29T16:17:06.455197,0.268,0.177,1.162,-22.311,-2.427,-12.192,1.206,25.54,idle
2026-01-29T16:17:06.466784,0.268,0.177,1.162,-22.311,-2.427,-12.192,1.206,25.54,idle
2026-01-29T16:17:06.497417,0.268,0.177,1.162,-22.311,-2.427,-12.192,1.206,25.54,idle
2026-01-29T16:17:06.523981,0.268,0.177,1.162,-22.311,-2.427,-12.192,1.206,25.54,idle
2026-01-29T16:17:06.554543,0.268,0.177,1.162,-22.311,-2.427,-12.192,1.206,25.54,idle
2026-01-29T16:17:06.585580,0.268,0.177,1.162,-22.311,-2.427,-12.192,1.206,25.54,idle
2026-01-29T16:17:06.608430,0.268,0.177,1.162,-22.311,-2.427,-12.192,1.206,25.54,idle
2026-01-29T16:17:06.645946,0.268,0.177,1.162,-22.311,-2.427,-12.192,1.206,25.54,idle
2026-01-29T16:17:06.680843,0.047,-0.406,0.754,90.529,-44.427,10.768,0.858,101.416,idle
2026-01-29T16:17:06.707324,0.047,-0.406,0.754,90.529,-44.427,10.768,0.858,101.416,idle
2026-01-29T16:17:06.736974,0.047,-0.406,0.754,90.529,-44.427,10.768,0.858,101.416,idle
2026-01-29T16:17:06.763996,0.047,-0.406,0.754,90.529,-44.427,10.768,0.858,101.416,idle
2026-01-29T16:17:06.789910,0.047,-0.406,0.754,90.529,-44.427,10.768,0.858,101.416,idle
2026-01-29T16:17:06.820818,0.047,-0.406,0.754,90.529,-44.427,10.768,0.858,101.416,idle
2026-01-29T16:17:06.842964,0.047,-0.406,0.754,90.529,-44.427,10.768,0.858,101.416,idle
2026-01-29T16:17:06.856304,0.047,-0.406,0.754,90.529,-44.427,10.768,0.858,101.416,idle
2026-01-29T16:17:06.881987,0.047,-0.406,0.754,90.529,-44.427,10.768,0.858,101.416,idle
2026-01-29T16:17:06.941629,0.047,-0.406,0.754,90.529,-44.427,10.768,0.858,101.416,idle
2026-01-29T16:17:06.968646,0.047,-0.406,0.754,90.529,-44.427,10.768,0.858,101.416,idle
2026-01-29T16:17:06.975411,0.204,0.275,0.915,45.519,12.133,-13.592,0.977,49.03,idle
2026-01-29T16:17:07.012080,0.204,0.275,0.915,45.519,12.133,-13.592,0.977,49.03,idle
2026-01-29T16:17:07.048410,0.204,0.275,0.915,45.519,12.133,-13.592,0.977,49.03,idle
2026-01-29T16:17:07.077976,0.204,0.275,0.915,45.519,12.133,-13.592,0.977,49.03,idle
2026-01-29T16:17:07.108409,0.204,0.275,0.915,45.519,12.133,-13.592,0.977,49.03,idle
2026-01-29T16:17:07.124941,0.204,0.275,0.915,45.519,12.133,-13.592,0.977,49.03,idle
2026-01-29T16:17:07.155336,0.204,0.275,0.915,45.519,12.133,-13.592,0.977,49.03,idle
2026-01-29T16:17:07.184189,0.204,0.275,0.915,45.519,12.133,-13.592,0.977,49.03,idle
2026-01-29T16:17:07.211124,0.204,0.275,0.915,45.519,12.133,-13.592,0.977,49.03,idle
2026-01-29T16:17:07.237386,0.204,0.275,0.915,45.519,12.133,-13.592,0.977,49.03,idle
2026-01-29T16:17:07.240528,0.204,0.275,0.915,45.519,12.133,-13.592,0.977,49.03,idle
2026-01-29T16:17:07.270832,0.204,0.275,0.915,45.519,12.133,-13.592,0.977,49.03,idle
2026-01-29T16:17:07.297606,0.204,0.275,0.915,45.519,12.133,-13.592,0.977,49.03,idle
2026-01-29T16:17:07.304829,0.147,0.002,1.026,-56.821,55.393,-13.032,1.037,80.417,idle
2026-01-29T16:17:07.327240,0.147,0.002,1.026,-56.821,55.393,-13.032,1.037,80.417,idle
2026-01-29T16:17:07.357941,0.147,0.002,1.026,-56.821,55.393,-13.032,1.037,80.417,idle
2026-01-29T16:17:07.395654,0.147,0.002,1.026,-56.821,55.393,-13.032,1.037,80.417,idle
2026-01-29T16:17:07.423151,0.147,0.002,1.026,-56.821,55.393,-13.032,1.037,80.417,idle
2026-01-29T16:17:07.455242,0.147,0.002,1.026,-56.821,55.393,-13.032,1.037,80.417,idle
2026-01-29T16:17:07.485478,0.147,0.002,1.026,-56.821,55.393,-13.032,1.037,80.417,idle
2026-01-29T16:17:07.508786,0.147,0.002,1.026,-56.821,55.393,-13.032,1.037,80.417,idle
2026-01-29T16:17:07.539498,0.147,0.002,1.026,-56.821,55.393,-13.032,1.037,80.417,idle
2026-01-29T16:17:07.571982,-0.102,0.298,1.483,-14.051,2.193,0.338,1.516,14.225,idle
2026-01-29T16:17:07.607416,-0.102,0.298,1.483,-14.051,2.193,0.338,1.516,14.225,idle
2026-01-29T16:17:07.633415,-0.102,0.298,1.483,-14.051,2.193,0.338,1.516,14.225,idle
2026-01-29T16:17:07.657141,-0.102,0.298,1.483,-14.051,2.193,0.338,1.516,14.225,idle
2026-01-29T16:17:07.683624,-0.102,0.298,1.483,-14.051,2.193,0.338,1.516,14.225,idle
2026-01-29T16:17:07.710998,-0.102,0.298,1.483,-14.051,2.193,0.338,1.516,14.225,idle
2026-01-29T16:17:07.747350,-0.102,0.298,1.483,-14.051,2.193,0.338,1.516,14.225,idle
2026-01-29T16:17:07.780422,-0.102,0.298,1.483,-14.051,2.193,0.338,1.516,14.225,idle
2026-01-29T16:17:07.812451,-0.102,0.298,1.483,-14.051,2.193,0.338,1.516,14.225,idle
2026-01-29T16:17:07.835157,-0.102,0.298,1.483,-14.051,2.193,0.338,1.516,14.225,idle
2026-01-29T16:17:07.884567,0.057,0.015,1.027,0.159,0.093,-0.362,1.028,0.406,idle
2026-01-29T16:17:07.922243,0.057,0.015,1.027,0.159,0.093,-0.362,1.028,0.406,idle
2026-01-29T16:17:07.948690,0.057,0.015,1.027,0.159,0.093,-0.362,1.028,0.406,idle
2026-01-29T16:17:07.977639,0.057,0.015,1.027,0.159,0.093,-0.362,1.028,0.406,idle
2026-01-29T16:17:07.997163,0.057,0.015,1.027,0.159,0.093,-0.362,1.028,0.406,idle
2026-01-29T16:17:08.026220,0.057,0.015,1.027,0.159,0.093,-0.362,1.028,0.406,idle
2026-01-29T16:17:08.051754,0.057,0.015,1.027,0.159,0.093,-0.362,1.028,0.406,idle
2026-01-29T16:17:08.084593,0.057,0.015,1.027,0.159,0.093,-0.362,1.028,0.406,idle
2026-01-29T16:17:08.111002,0.057,0.015,1.027,0.159,0.093,-0.362,1.028,0.406,idle
2026-01-29T16:17:08.148477,0.058,0.016,1.033,0.089,0.093,-0.432,1.035,0.45,idle
2026-01-29T16:17:08.174205,0.058,0.016,1.033,0.089,0.093,-0.432,1.035,0.45,idle
2026-01-29T16:17:08.206224,0.058,0.016,1.033,0.089,0.093,-0.432,1.035,0.45,idle
2026-01-29T16:17:08.238647,0.058,0.016,1.033,0.089,0.093,-0.432,1.035,0.45,idle
2026-01-29T16:17:08.249710,0.058,0.016,1.033,0.089,0.093,-0.432,1.035,0.45,idle
2026-01-29T16:17:08.260229,0.058,0.016,1.033,0.089,0.093,-0.432,1.035,0.45,idle
2026-01-29T16:17:08.285647,0.058,0.016,1.033,0.089,0.093,-0.432,1.035,0.45,idle
2026-01-29T16:17:08.314632,0.058,0.016,1.033,0.089,0.093,-0.432,1.035,0.45,idle
2026-01-29T16:17:08.326166,0.058,0.016,1.033,0.089,0.093,-0.432,1.035,0.45,idle
2026-01-29T16:17:08.352547,0.058,0.016,1.033,0.089,0.093,-0.432,1.035,0.45,idle
2026-01-29T16:17:08.380833,0.058,0.016,1.033,0.089,0.093,-0.432,1.035,0.45,idle
2026-01-29T16:17:08.414255,0.059,0.026,1.023,-0.471,0.093,-0.432,1.025,0.646,idle
2026-01-29T16:17:08.443943,0.059,0.026,1.023,-0.471,0.093,-0.432,1.025,0.646,idle
2026-01-29T16:17:08.478438,0.059,0.026,1.023,-0.471,0.093,-0.432,1.025,0.646,idle
2026-01-29T16:17:08.507654,0.059,0.026,1.023,-0.471,0.093,-0.432,1.025,0.646,idle
2026-01-29T16:17:08.533850,0.059,0.026,1.023,-0.471,0.093,-0.432,1.025,0.646,idle
2026-01-29T16:17:08.536669,0.059,0.026,1.023,-0.471,0.093,-0.432,1.025,0.646,idle
2026-01-29T16:17:08.564383,0.059,0.026,1.023,-0.471,0.093,-0.432,1.025,0.646,idle
2026-01-29T16:17:08.589391,0.059,0.026,1.023,-0.471,0.093,-0.432,1.025,0.646,idle
2026-01-29T16:17:08.623996,0.059,0.026,1.023,-0.471,0.093,-0.432,1.025,0.646,idle
2026-01-29T16:17:08.651288,0.059,0.026,1.023,-0.471,0.093,-0.432,1.025,0.646,idle
2026-01-29T16:17:08.681348,0.058,0.017,1.032,0.439,-0.047,-0.362,1.034,0.571,idle
2026-01-29T16:17:08.708296,0.058,0.017,1.032,0.439,-0.047,-0.362,1.034,0.571,idle
2026-01-29T16:17:08.734502,0.058,0.017,1.032,0.439,-0.047,-0.362,1.034,0.571,idle
2026-01-29T16:17:08.766507,0.058,0.017,1.032,0.439,-0.047,-0.362,1.034,0.571,idle
2026-01-29T16:17:08.793555,0.058,0.017,1.032,0.439,-0.047,-0.362,1.034,0.571,idle
2026-01-29T16:17:08.807086,0.058,0.017,1.032,0.439,-0.047,-0.362,1.034,0.571,idle
2026-01-29T16:17:08.835025,0.058,0.017,1.032,0.439,-0.047,-0.362,1.034,0.571,idle
2026-01-29T16:17:08.864752,0.058,0.017,1.032,0.439,-0.047,-0.362,1.034,0.571,idle
2026-01-29T16:17:08.890283,0.058,0.017,1.032,0.439,-0.047,-0.362,1.034,0.571,idle
2026-01-29T16:18:01.576620,0,0,0,0,0,0,0,0,idle
2026-01-29T16:18:01.618848,0.163,-0.929,0.356,0.929,-0.117,0.268,1.009,0.974,idle
2026-01-29T16:18:01.636335,0.163,-0.929,0.356,0.929,-0.117,0.268,1.009,0.974,idle
2026-01-29T16:18:01.668932,0.163,-0.929,0.356,0.929,-0.117,0.268,1.009,0.974,idle
2026-01-29T16:18:01.694438,0.163,-0.929,0.356,0.929,-0.117,0.268,1.009,0.974,idle
2026-01-29T16:18:01.735457,0.163,-0.929,0.356,0.929,-0.117,0.268,1.009,0.974,idle
2026-01-29T16:18:01.756639,0.163,-0.935,0.356,0.929,-0.747,0.268,1.013,1.222,idle
2026-01-29T16:18:01.786890,0.163,-0.935,0.356,0.929,-0.747,0.268,1.013,1.222,idle
2026-01-29T16:18:01.819120,0.163,-0.935,0.356,0.929,-0.747,0.268,1.013,1.222,idle
2026-01-29T16:18:01.849764,0.163,-0.935,0.356,0.929,-0.747,0.268,1.013,1.222,idle
2026-01-29T16:18:01.881293,0.163,-0.935,0.356,0.929,-0.747,0.268,1.013,1.222,idle
2026-01-29T16:18:01.906587,0.163,-0.935,0.356,0.929,-0.747,0.268,1.013,1.222,idle
2026-01-29T16:18:01.935587,0.163,-0.935,0.356,0.929,-0.747,0.268,1.013,1.222,idle
2026-01-29T16:18:01.967117,0.163,-0.935,0.356,0.929,-0.747,0.268,1.013,1.222,idle
2026-01-29T16:18:01.998642,0.163,-0.935,0.356,0.929,-0.747,0.268,1.013,1.222,idle
2026-01-29T16:18:02.025363,0.156,-0.931,0.357,-0.541,0.723,0.688,1.009,1.135,idle
2026-01-29T16:18:02.052367,0.156,-0.931,0.357,-0.541,0.723,0.688,1.009,1.135,idle
2026-01-29T16:18:02.080531,0.156,-0.931,0.357,-0.541,0.723,0.688,1.009,1.135,idle
2026-01-29T16:18:02.103429,0.156,-0.931,0.357,-0.541,0.723,0.688,1.009,1.135,idle
2026-01-29T16:18:02.136149,0.156,-0.931,0.357,-0.541,0.723,0.688,1.009,1.135,idle
2026-01-29T16:18:02.168471,0.156,-0.931,0.357,-0.541,0.723,0.688,1.009,1.135,idle
2026-01-29T16:18:02.199344,0.156,-0.931,0.357,-0.541,0.723,0.688,1.009,1.135,idle
2026-01-29T16:18:02.230561,0.156,-0.931,0.357,-0.541,0.723,0.688,1.009,1.135,idle
2026-01-29T16:18:02.263162,0.156,-0.931,0.357,-0.541,0.723,0.688,1.009,1.135,idle
2026-01-29T16:18:02.294939,0.156,-0.931,0.357,-0.541,0.723,0.688,1.009,1.135,idle
2026-01-29T16:18:02.326428,0.158,-0.93,0.352,0.789,0.303,-0.852,1.007,1.2,idle
2026-01-29T16:18:02.354871,0.158,-0.93,0.352,0.789,0.303,-0.852,1.007,1.2,idle
2026-01-29T16:18:02.386372,0.158,-0.93,0.352,0.789,0.303,-0.852,1.007,1.2,idle
2026-01-29T16:18:02.419852,0.158,-0.93,0.352,0.789,0.303,-0.852,1.007,1.2,idle
2026-01-29T16:18:02.447034,0.158,-0.93,0.352,0.789,0.303,-0.852,1.007,1.2,idle
2026-01-29T16:18:02.470529,0.158,-0.93,0.352,0.789,0.303,-0.852,1.007,1.2,idle
2026-01-29T16:18:02.503182,0.158,-0.93,0.352,0.789,0.303,-0.852,1.007,1.2,idle
2026-01-29T16:18:02.507093,0.158,-0.93,0.352,0.789,0.303,-0.852,1.007,1.2,idle
2026-01-29T16:18:02.528592,0.158,-0.93,0.352,0.789,0.303,-0.852,1.007,1.2,idle
2026-01-29T16:18:02.560638,0.158,-0.93,0.352,0.789,0.303,-0.852,1.007,1.2,idle
2026-01-29T16:18:02.586575,0.158,-0.93,0.352,0.789,0.303,-0.852,1.007,1.2,idle
2026-01-29T16:18:02.611938,0.158,-0.93,0.352,0.789,0.303,-0.852,1.007,1.2,idle
2026-01-29T16:18:02.623107,0.169,-0.934,0.355,-0.121,-0.327,-0.782,1.013,0.856,idle
2026-01-29T16:18:02.644783,0.169,-0.934,0.355,-0.121,-0.327,-0.782,1.013,0.856,idle
2026-01-29T16:18:02.685071,0.169,-0.934,0.355,-0.121,-0.327,-0.782,1.013,0.856,idle
2026-01-29T16:18:02.716594,0.169,-0.934,0.355,-0.121,-0.327,-0.782,1.013,0.856,idle
2026-01-29T16:18:02.749108,0.169,-0.934,0.355,-0.121,-0.327,-0.782,1.013,0.856,idle
2026-01-29T16:18:02.773659,0.169,-0.934,0.355,-0.121,-0.327,-0.782,1.013,0.856,idle
2026-01-29T16:18:02.801934,0.169,-0.934,0.355,-0.121,-0.327,-0.782,1.013,0.856,idle
2026-01-29T16:18:02.835573,0.169,-0.934,0.355,-0.121,-0.327,-0.782,1.013,0.856,idle
2026-01-29T16:18:02.869505,0.169,-0.934,0.355,-0.121,-0.327,-0.782,1.013,0.856,idle
2026-01-29T16:18:02.896122,0.169,-0.934,0.355,-0.121,-0.327,-0.782,1.013,0.856,idle
2026-01-29T16:18:02.927609,0.162,-0.933,0.356,0.159,0.093,0.268,1.011,0.325,idle
2026-01-29T16:18:02.969167,0.162,-0.933,0.356,0.159,0.093,0.268,1.011,0.325,idle
2026-01-29T16:18:03.000241,0.162,-0.933,0.356,0.159,0.093,0.268,1.011,0.325,idle
2026-01-29T16:18:03.029060,0.162,-0.933,0.356,0.159,0.093,0.268,1.011,0.325,idle
2026-01-29T16:18:03.039445,0.162,-0.933,0.356,0.159,0.093,0.268,1.011,0.325,idle
2026-01-29T16:18:03.069583,0.162,-0.933,0.356,0.159,0.093,0.268,1.011,0.325,idle
2026-01-29T16:18:03.099621,0.162,-0.933,0.356,0.159,0.093,0.268,1.011,0.325,idle
2026-01-29T16:18:03.132117,0.162,-0.933,0.356,0.159,0.093,0.268,1.011,0.325,idle
2026-01-29T16:18:03.163177,0.162,-0.933,0.356,0.159,0.093,0.268,1.011,0.325,idle
2026-01-29T16:18:03.195628,0.167,-0.931,0.355,-0.051,1.213,-0.362,1.01,1.267,idle
2026-01-29T16:18:03.227356,0.167,-0.931,0.355,-0.051,1.213,-0.362,1.01,1.267,idle
2026-01-29T16:18:03.268458,0.167,-0.931,0.355,-0.051,1.213,-0.362,1.01,1.267,idle
2026-01-29T16:18:03.298585,0.167,-0.931,0.355,-0.051,1.213,-0.362,1.01,1.267,idle
2026-01-29T16:18:03.311285,0.167,-0.931,0.355,-0.051,1.213,-0.362,1.01,1.267,idle
2026-01-29T16:18:03.353285,0.167,-0.931,0.355,-0.051,1.213,-0.362,1.01,1.267,idle
2026-01-29T16:18:03.375856,0.167,-0.931,0.355,-0.051,1.213,-0.362,1.01,1.267,idle
2026-01-29T16:18:03.403954,0.167,-0.931,0.355,-0.051,1.213,-0.362,1.01,1.267,idle
2026-01-29T16:18:03.428155,0.167,-0.931,0.355,-0.051,1.213,-0.362,1.01,1.267,idle
2026-01-29T16:18:03.468918,0.16,-0.927,0.362,0.929,0.443,-0.852,1.008,1.336,idle
2026-01-29T16:18:03.499523,0.16,-0.927,0.362,0.929,0.443,-0.852,1.008,1.336,idle
2026-01-29T16:18:03.531884,0.16,-0.927,0.362,0.929,0.443,-0.852,1.008,1.336,idle
2026-01-29T16:18:03.564549,0.16,-0.927,0.362,0.929,0.443,-0.852,1.008,1.336,idle
2026-01-29T16:18:03.585612,0.16,-0.927,0.362,0.929,0.443,-0.852,1.008,1.336,idle
2026-01-29T16:18:03.612651,0.16,-0.927,0.362,0.929,0.443,-0.852,1.008,1.336,idle
2026-01-29T16:18:03.635570,0.16,-0.927,0.362,0.929,0.443,-0.852,1.008,1.336,idle
2026-01-29T16:18:03.667284,0.16,-0.927,0.362,0.929,0.443,-0.852,1.008,1.336,idle
2026-01-29T16:18:03.689470,0.16,-0.927,0.362,0.929,0.443,-0.852,1.008,1.336,idle
2026-01-29T16:18:03.705626,0.164,-0.929,0.364,-2.081,0.163,-0.572,1.011,2.164,idle
2026-01-29T16:18:03.731734,0.164,-0.929,0.364,-2.081,0.163,-0.572,1.011,2.164,idle
2026-01-29T16:18:03.764387,0.164,-0.929,0.364,-2.081,0.163,-0.572,1.011,2.164,idle
2026-01-29T16:18:03.794853,0.164,-0.929,0.364,-2.081,0.163,-0.572,1.011,2.164,idle
2026-01-29T16:18:03.821994,0.164,-0.929,0.364,-2.081,0.163,-0.572,1.011,2.164,idle
2026-01-29T16:18:03.847983,0.164,-0.929,0.364,-2.081,0.163,-0.572,1.011,2.164,idle
2026-01-29T16:18:03.855674,0.164,-0.929,0.364,-2.081,0.163,-0.572,1.011,2.164,idle
2026-01-29T16:18:03.879795,0.164,-0.929,0.364,-2.081,0.163,-0.572,1.011,2.164,idle
2026-01-29T16:18:03.911911,0.164,-0.929,0.364,-2.081,0.163,-0.572,1.011,2.164,idle
2026-01-29T16:18:03.943352,0.164,-0.929,0.364,-2.081,0.163,-0.572,1.011,2.164,idle
2026-01-29T16:18:03.974569,0.164,-0.929,0.364,-2.081,0.163,-0.572,1.011,2.164,idle
2026-01-29T16:18:04.016188,0.164,-0.929,0.364,-2.081,0.163,-0.572,1.011,2.164,idle
2026-01-29T16:18:04.037495,0.168,-0.927,0.359,-0.191,-0.257,-0.502,1.009,0.595,idle
2026-01-29T16:18:04.069583,0.168,-0.927,0.359,-0.191,-0.257,-0.502,1.009,0.595,idle
2026-01-29T16:18:04.101305,0.168,-0.927,0.359,-0.191,-0.257,-0.502,1.009,0.595,idle
2026-01-29T16:18:04.134469,0.168,-0.927,0.359,-0.191,-0.257,-0.502,1.009,0.595,idle
2026-01-29T16:18:04.164815,0.168,-0.927,0.359,-0.191,-0.257,-0.502,1.009,0.595,idle
2026-01-29T16:18:04.186466,0.168,-0.927,0.359,-0.191,-0.257,-0.502,1.009,0.595,idle
2026-01-29T16:18:04.217178,0.168,-0.927,0.359,-0.191,-0.257,-0.502,1.009,0.595,idle
2026-01-29T16:18:04.238903,0.168,-0.927,0.359,-0.191,-0.257,-0.502,1.009,0.595,idle
2026-01-29T16:18:04.269137,0.168,-0.927,0.359,-0.191,-0.257,-0.502,1.009,0.595,idle
2026-01-29T16:18:04.301666,0.168,-0.927,0.359,-0.191,-0.257,-0.502,1.009,0.595,idle
2026-01-29T16:18:04.304791,0.161,-0.932,0.354,-0.471,0.093,-0.152,1.01,0.503,idle
2026-01-29T16:18:04.331848,0.161,-0.932,0.354,-0.471,0.093,-0.152,1.01,0.503,idle
2026-01-29T16:18:04.363619,0.161,-0.932,0.354,-0.471,0.093,-0.152,1.01,0.503,idle
2026-01-29T16:18:04.395145,0.161,-0.932,0.354,-0.471,0.093,-0.152,1.01,0.503,idle
2026-01-29T16:18:04.424814,0.161,-0.932,0.354,-0.471,0.093,-0.152,1.01,0.503,idle
2026-01-29T16:18:04.455901,0.161,-0.932,0.354,-0.471,0.093,-0.152,1.01,0.503,idle
2026-01-29T16:18:04.478550,0.161,-0.932,0.354,-0.471,0.093,-0.152,1.01,0.503,idle
2026-01-29T16:18:04.503722,0.161,-0.932,0.354,-0.471,0.093,-0.152,1.01,0.503,idle
2026-01-29T16:18:04.517332,0.161,-0.932,0.354,-0.471,0.093,-0.152,1.01,0.503,idle
2026-01-29T16:18:04.542510,0.161,-0.932,0.354,-0.471,0.093,-0.152,1.01,0.503,idle
2026-01-29T16:18:04.574358,0.164,-0.932,0.359,0.999,0.303,-0.082,1.012,1.047,idle
2026-01-29T16:18:04.616288,0.164,-0.932,0.359,0.999,0.303,-0.082,1.012,1.047,idle
2026-01-29T16:18:04.651013,0.164,-0.932,0.359,0.999,0.303,-0.082,1.012,1.047,idle
2026-01-29T16:18:04.680203,0.164,-0.932,0.359,0.999,0.303,-0.082,1.012,1.047,idle
2026-01-29T16:18:04.701274,0.164,-0.932,0.359,0.999,0.303,-0.082,1.012,1.047,idle
2026-01-29T16:18:04.722778,0.164,-0.932,0.359,0.999,0.303,-0.082,1.012,1.047,idle
2026-01-29T16:18:04.752336,0.164,-0.932,0.359,0.999,0.303,-0.082,1.012,1.047,idle
2026-01-29T16:18:04.784949,0.164,-0.932,0.359,0.999,0.303,-0.082,1.012,1.047,idle
2026-01-29T16:18:04.786507,0.164,-0.932,0.359,0.999,0.303,-0.082,1.012,1.047,idle
2026-01-29T16:18:04.816129,0.164,-0.932,0.359,0.999,0.303,-0.082,1.012,1.047,idle
2026-01-29T16:18:04.845964,0.164,-0.932,0.359,0.999,0.303,-0.082,1.012,1.047,idle
2026-01-29T16:18:04.868224,0.164,-0.932,0.359,0.999,0.303,-0.082,1.012,1.047,idle
2026-01-29T16:18:04.899745,0.164,-0.932,0.359,0.999,0.303,-0.082,1.012,1.047,idle
2026-01-29T16:18:04.936380,0.165,-0.929,0.361,-0.611,-0.327,-0.992,1.011,1.21,idle
2026-01-29T16:18:04.962960,0.165,-0.929,0.361,-0.611,-0.327,-0.992,1.011,1.21,idle
2026-01-29T16:18:05.001754,0.165,-0.929,0.361,-0.611,-0.327,-0.992,1.011,1.21,idle
2026-01-29T16:18:05.034229,0.165,-0.929,0.361,-0.611,-0.327,-0.992,1.011,1.21,idle
2026-01-29T16:18:05.057814,0.165,-0.929,0.361,-0.611,-0.327,-0.992,1.011,1.21,idle
2026-01-29T16:18:05.081665,0.165,-0.929,0.361,-0.611,-0.327,-0.992,1.011,1.21,idle
2026-01-29T16:18:05.115574,0.165,-0.929,0.361,-0.611,-0.327,-0.992,1.011,1.21,idle
2026-01-29T16:18:05.147370,0.165,-0.929,0.361,-0.611,-0.327,-0.992,1.011,1.21,idle
2026-01-29T16:18:05.175974,0.165,-0.929,0.361,-0.611,-0.327,-0.992,1.011,1.21,idle
2026-01-29T16:18:05.198627,0.165,-0.929,0.361,-0.611,-0.327,-0.992,1.011,1.21,idle
2026-01-29T16:18:05.230552,0.165,-0.929,0.361,-0.611,-0.327,-0.992,1.011,1.21,idle
2026-01-29T16:18:05.263220,0.173,-0.93,0.348,-0.751,-0.747,-0.502,1.008,1.172,idle
2026-01-29T16:18:05.302435,0.173,-0.93,0.348,-0.751,-0.747,-0.502,1.008,1.172,idle
2026-01-29T16:18:05.327043,0.173,-0.93,0.348,-0.751,-0.747,-0.502,1.008,1.172,idle
2026-01-29T16:18:05.369209,0.173,-0.93,0.348,-0.751,-0.747,-0.502,1.008,1.172,idle
2026-01-29T16:18:05.386180,0.173,-0.93,0.348,-0.751,-0.747,-0.502,1.008,1.172,idle
2026-01-29T16:18:05.411877,0.173,-0.93,0.348,-0.751,-0.747,-0.502,1.008,1.172,idle
2026-01-29T16:18:05.436687,0.173,-0.93,0.348,-0.751,-0.747,-0.502,1.008,1.172,idle
2026-01-29T16:18:05.477289,0.173,-0.93,0.348,-0.751,-0.747,-0.502,1.008,1.172,idle
2026-01-29T16:18:05.505897,0.171,-0.938,0.35,1.209,-0.677,-0.502,1.016,1.474,idle
2026-01-29T16:18:05.535877,0.171,-0.938,0.35,1.209,-0.677,-0.502,1.016,1.474,idle
2026-01-29T16:18:05.565734,0.171,-0.938,0.35,1.209,-0.677,-0.502,1.016,1.474,idle
2026-01-29T16:18:05.597703,0.171,-0.938,0.35,1.209,-0.677,-0.502,1.016,1.474,idle
2026-01-29T16:18:05.633312,0.171,-0.938,0.35,1.209,-0.677,-0.502,1.016,1.474,idle
2026-01-29T16:18:05.655468,0.171,-0.938,0.35,1.209,-0.677,-0.502,1.016,1.474,idle
2026-01-29T16:18:05.684393,0.171,-0.938,0.35,1.209,-0.677,-0.502,1.016,1.474,idle
2026-01-29T16:18:05.715874,0.171,-0.938,0.35,1.209,-0.677,-0.502,1.016,1.474,idle
2026-01-29T16:18:05.749098,0.171,-0.938,0.35,1.209,-0.677,-0.502,1.016,1.474,idle
2026-01-29T16:18:05.774869,0.172,-0.932,0.352,0.089,-0.187,-0.222,1.011,0.303,idle
2026-01-29T16:18:05.801443,0.172,-0.932,0.352,0.089,-0.187,-0.222,1.011,0.303,idle
2026-01-29T16:18:05.833539,0.172,-0.932,0.352,0.089,-0.187,-0.222,1.011,0.303,idle
2026-01-29T16:18:05.865116,0.172,-0.932,0.352,0.089,-0.187,-0.222,1.011,0.303,idle
2026-01-29T16:18:05.897209,0.172,-0.932,0.352,0.089,-0.187,-0.222,1.011,0.303,idle
2026-01-29T16:18:05.924090,0.172,-0.932,0.352,0.089,-0.187,-0.222,1.011,0.303,idle
2026-01-29T16:18:05.949420,0.172,-0.932,0.352,0.089,-0.187,-0.222,1.011,0.303,idle
2026-01-29T16:18:05.986042,0.172,-0.932,0.352,0.089,-0.187,-0.222,1.011,0.303,idle
2026-01-29T16:18:06.012616,0.172,-0.932,0.352,0.089,-0.187,-0.222,1.011,0.303,idle
2026-01-29T16:18:06.033951,0.172,-0.932,0.352,0.089,-0.187,-0.222,1.011,0.303,idle
2026-01-29T16:18:06.046448,0.176,-0.933,0.349,-0.541,0.163,-0.082,1.012,0.571,idle
2026-01-29T16:18:06.077397,0.176,-0.933,0.349,-0.541,0.163,-0.082,1.012,0.571,idle
2026-01-29T16:18:06.098939,0.176,-0.933,0.349,-0.541,0.163,-0.082,1.012,0.571,idle
2026-01-29T16:18:06.130587,0.176,-0.933,0.349,-0.541,0.163,-0.082,1.012,0.571,idle
2026-01-29T16:18:06.162412,0.176,-0.933,0.349,-0.541,0.163,-0.082,1.012,0.571,idle
2026-01-29T16:18:06.194298,0.176,-0.933,0.349,-0.541,0.163,-0.082,1.012,0.571,idle
2026-01-29T16:18:06.235276,0.176,-0.933,0.349,-0.541,0.163,-0.082,1.012,0.571,idle
2026-01-29T16:18:06.256942,0.176,-0.933,0.349,-0.541,0.163,-0.082,1.012,0.571,idle
2026-01-29T16:18:06.299510,0.176,-0.933,0.349,-0.541,0.163,-0.082,1.012,0.571,idle
2026-01-29T16:18:06.317221,0.171,-0.938,0.343,-0.261,0.933,0.268,1.013,1.005,idle
2026-01-29T16:18:06.350770,0.171,-0.938,0.343,-0.261,0.933,0.268,1.013,1.005,idle
2026-01-29T16:18:06.384072,0.171,-0.938,0.343,-0.261,0.933,0.268,1.013,1.005,idle
2026-01-29T16:18:06.415250,0.171,-0.938,0.343,-0.261,0.933,0.268,1.013,1.005,idle
2026-01-29T16:18:06.447609,0.171,-0.938,0.343,-0.261,0.933,0.268,1.013,1.005,idle
2026-01-29T16:18:06.468311,0.171,-0.938,0.343,-0.261,0.933,0.268,1.013,1.005,idle
2026-01-29T16:18:06.500763,0.171,-0.938,0.343,-0.261,0.933,0.268,1.013,1.005,idle
2026-01-29T16:18:06.522093,0.171,-0.938,0.343,-0.261,0.933,0.268,1.013,1.005,idle
2026-01-29T16:18:06.543789,0.171,-0.938,0.343,-0.261,0.933,0.268,1.013,1.005,idle
2026-01-29T16:18:06.583722,0.171,-0.938,0.343,-0.261,0.933,0.268,1.013,1.005,idle
2026-01-29T16:18:06.615151,0.174,-0.93,0.349,1.209,-0.187,-0.362,1.009,1.276,idle
2026-01-29T16:18:06.650599,0.174,-0.93,0.349,1.209,-0.187,-0.362,1.009,1.276,idle
2026-01-29T16:18:06.677205,0.174,-0.93,0.349,1.209,-0.187,-0.362,1.009,1.276,idle
2026-01-29T16:18:06.701194,0.174,-0.93,0.349,1.209,-0.187,-0.362,1.009,1.276,idle
2026-01-29T16:18:06.729092,0.174,-0.93,0.349,1.209,-0.187,-0.362,1.009,1.276,idle
2026-01-29T16:18:06.760591,0.174,-0.93,0.349,1.209,-0.187,-0.362,1.009,1.276,idle
2026-01-29T16:18:06.792263,0.174,-0.93,0.349,1.209,-0.187,-0.362,1.009,1.276,idle
2026-01-29T16:18:06.818993,0.174,-0.93,0.349,1.209,-0.187,-0.362,1.009,1.276,idle
2026-01-29T16:18:06.845166,0.174,-0.93,0.349,1.209,-0.187,-0.362,1.009,1.276,idle
2026-01-29T16:18:06.855931,0.168,-0.93,0.358,0.509,-0.747,-0.152,1.011,0.917,idle
2026-01-29T16:18:06.877023,0.168,-0.93,0.358,0.509,-0.747,-0.152,1.011,0.917,idle
2026-01-29T16:18:06.903461,0.168,-0.93,0.358,0.509,-0.747,-0.152,1.011,0.917,idle
2026-01-29T16:18:06.930294,0.168,-0.93,0.358,0.509,-0.747,-0.152,1.011,0.917,idle
2026-01-29T16:18:06.961844,0.168,-0.93,0.358,0.509,-0.747,-0.152,1.011,0.917,idle
2026-01-29T16:18:06.994069,0.168,-0.93,0.358,0.509,-0.747,-0.152,1.011,0.917,idle
2026-01-29T16:18:07.006356,0.168,-0.93,0.358,0.509,-0.747,-0.152,1.011,0.917,idle
2026-01-29T16:18:07.036324,0.168,-0.93,0.358,0.509,-0.747,-0.152,1.011,0.917,idle
2026-01-29T16:18:07.065523,0.168,-0.93,0.358,0.509,-0.747,-0.152,1.011,0.917,idle
2026-01-29T16:18:07.095068,0.168,-0.93,0.358,0.509,-0.747,-0.152,1.011,0.917,idle
2026-01-29T16:18:07.117406,0.168,-0.93,0.358,0.509,-0.747,-0.152,1.011,0.917,idle
2026-01-29T16:18:07.150148,0.168,-0.93,0.358,0.509,-0.747,-0.152,1.011,0.917,idle
2026-01-29T16:18:07.181827,0.168,-0.93,0.358,0.509,-0.747,-0.152,1.011,0.917,idle
2026-01-29T16:18:07.207345,0.176,-0.932,0.344,-0.121,-0.677,-0.362,1.009,0.777,idle
2026-01-29T16:18:07.232024,0.176,-0.932,0.344,-0.121,-0.677,-0.362,1.009,0.777,idle
2026-01-29T16:18:07.261448,0.176,-0.932,0.344,-0.121,-0.677,-0.362,1.009,0.777,idle
2026-01-29T16:18:07.283346,0.176,-0.932,0.344,-0.121,-0.677,-0.362,1.009,0.777,idle
2026-01-29T16:18:07.316789,0.176,-0.932,0.344,-0.121,-0.677,-0.362,1.009,0.777,idle
2026-01-29T16:18:07.335973,0.176,-0.932,0.344,-0.121,-0.677,-0.362,1.009,0.777,idle
2026-01-29T16:18:07.358193,0.176,-0.932,0.344,-0.121,-0.677,-0.362,1.009,0.777,idle
2026-01-29T16:18:07.379657,0.176,-0.932,0.344,-0.121,-0.677,-0.362,1.009,0.777,idle
2026-01-29T16:18:07.391126,0.176,-0.932,0.344,-0.121,-0.677,-0.362,1.009,0.777,idle
2026-01-29T16:18:07.417619,0.176,-0.932,0.344,-0.121,-0.677,-0.362,1.009,0.777,idle
2026-01-29T16:18:07.450074,0.176,-0.932,0.344,-0.121,-0.677,-0.362,1.009,0.777,idle
2026-01-29T16:18:07.483897,0.168,-0.934,0.351,0.789,0.653,0.688,1.012,1.234,idle
2026-01-29T16:18:07.513807,0.168,-0.934,0.351,0.789,0.653,0.688,1.012,1.234,idle
2026-01-29T16:18:07.546142,0.168,-0.934,0.351,0.789,0.653,0.688,1.012,1.234,idle
2026-01-29T16:18:07.578399,0.168,-0.934,0.351,0.789,0.653,0.688,1.012,1.234,idle
2026-01-29T16:18:07.603800,0.168,-0.934,0.351,0.789,0.653,0.688,1.012,1.234,idle
2026-01-29T16:18:07.628821,0.168,-0.934,0.351,0.789,0.653,0.688,1.012,1.234,idle
2026-01-29T16:18:07.650420,0.168,-0.934,0.351,0.789,0.653,0.688,1.012,1.234,idle
2026-01-29T16:18:07.663184,0.168,-0.934,0.351,0.789,0.653,0.688,1.012,1.234,idle
2026-01-29T16:18:07.696463,0.168,-0.934,0.351,0.789,0.653,0.688,1.012,1.234,idle
2026-01-29T16:18:07.719119,0.168,-0.934,0.351,0.789,0.653,0.688,1.012,1.234,idle
2026-01-29T16:18:07.725693,0.161,-0.932,0.355,0.229,0.443,0.058,1.01,0.502,idle
2026-01-29T16:18:07.752112,0.161,-0.932,0.355,0.229,0.443,0.058,1.01,0.502,idle
2026-01-29T16:18:07.782270,0.161,-0.932,0.355,0.229,0.443,0.058,1.01,0.502,idle
2026-01-29T16:18:07.814727,0.161,-0.932,0.355,0.229,0.443,0.058,1.01,0.502,idle
2026-01-29T16:18:07.848450,0.161,-0.932,0.355,0.229,0.443,0.058,1.01,0.502,idle
2026-01-29T16:18:07.876008,0.161,-0.932,0.355,0.229,0.443,0.058,1.01,0.502,idle
2026-01-29T16:18:07.901030,0.161,-0.932,0.355,0.229,0.443,0.058,1.01,0.502,idle
2026-01-29T16:18:07.931299,0.161,-0.932,0.355,0.229,0.443,0.058,1.01,0.502,idle
2026-01-29T16:18:07.967437,0.161,-0.932,0.355,0.229,0.443,0.058,1.01,0.502,idle
2026-01-29T16:18:07.996100,0.162,-0.932,0.355,0.159,0.443,0.128,1.011,0.488,idle
2026-01-29T16:18:08.026098,0.162,-0.932,0.355,0.159,0.443,0.128,1.011,0.488,idle
2026-01-29T16:18:08.050375,0.162,-0.932,0.355,0.159,0.443,0.128,1.011,0.488,idle
2026-01-29T16:18:08.081046,0.162,-0.932,0.355,0.159,0.443,0.128,1.011,0.488,idle
2026-01-29T16:18:08.108749,0.162,-0.932,0.355,0.159,0.443,0.128,1.011,0.488,idle
2026-01-29T16:18:08.135980,0.162,-0.932,0.355,0.159,0.443,0.128,1.011,0.488,idle
2026-01-29T16:18:08.167156,0.162,-0.932,0.355,0.159,0.443,0.128,1.011,0.488,idle
2026-01-29T16:18:08.200975,0.162,-0.932,0.355,0.159,0.443,0.128,1.011,0.488,idle
2026-01-29T16:18:08.233404,0.162,-0.932,0.355,0.159,0.443,0.128,1.011,0.488,idle
2026-01-29T16:18:08.259802,0.162,-0.932,0.355,0.159,0.443,0.128,1.011,0.488,idle
2026-01-29T16:18:08.297787,0.163,-0.929,0.35,0.229,-0.327,-0.572,1.006,0.697,idle
2026-01-29T16:18:08.329534,0.163,-0.929,0.35,0.229,-0.327,-0.572,1.006,0.697,idle
2026-01-29T16:18:08.360711,0.163,-0.929,0.35,0.229,-0.327,-0.572,1.006,0.697,idle
2026-01-29T16:18:08.392792,0.163,-0.929,0.35,0.229,-0.327,-0.572,1.006,0.697,idle
2026-01-29T16:18:08.414002,0.163,-0.929,0.35,0.229,-0.327,-0.572,1.006,0.697,idle
2026-01-29T16:18:08.450596,0.163,-0.929,0.35,0.229,-0.327,-0.572,1.006,0.697,idle
2026-01-29T16:18:08.476943,0.163,-0.929,0.35,0.229,-0.327,-0.572,1.006,0.697,idle
2026-01-29T16:18:08.517720,0.163,-0.929,0.35,0.229,-0.327,-0.572,1.006,0.697,idle
2026-01-29T16:18:08.536624,0.166,-0.931,0.362,0.859,0.443,-0.502,1.013,1.089,idle
2026-01-29T16:18:08.559683,0.166,-0.931,0.362,0.859,0.443,-0.502,1.013,1.089,idle
2026-01-29T16:18:08.601450,0.166,-0.931,0.362,0.859,0.443,-0.502,1.013,1.089,idle
2026-01-29T16:18:08.628704,0.166,-0.931,0.362,0.859,0.443,-0.502,1.013,1.089,idle
2026-01-29T16:18:08.650667,0.166,-0.931,0.362,0.859,0.443,-0.502,1.013,1.089,idle
2026-01-29T16:18:08.682299,0.166,-0.931,0.362,0.859,0.443,-0.502,1.013,1.089,idle
2026-01-29T16:18:08.716521,0.166,-0.931,0.362,0.859,0.443,-0.502,1.013,1.089,idle
2026-01-29T16:18:08.742239,0.166,-0.931,0.362,0.859,0.443,-0.502,1.013,1.089,idle
2026-01-29T16:18:08.776076,0.166,-0.931,0.362,0.859,0.443,-0.502,1.013,1.089,idle
2026-01-29T16:18:08.810130,0.166,-0.931,0.362,0.859,0.443,-0.502,1.013,1.089,idle
2026-01-29T16:18:08.836358,0.166,-0.931,0.362,0.859,0.443,-0.502,1.013,1.089,idle
2026-01-29T16:18:08.860385,0.166,-0.931,0.362,0.859,0.443,-0.502,1.013,1.089,idle
2026-01-29T16:18:08.900715,0.166,-0.931,0.362,0.859,0.443,-0.502,1.013,1.089,idle
2026-01-29T16:18:08.923610,0.166,-0.933,0.361,-1.101,-0.327,-0.572,1.014,1.283,idle
2026-01-29T16:18:08.944832,0.166,-0.933,0.361,-1.101,-0.327,-0.572,1.014,1.283,idle
2026-01-29T16:18:08.977078,0.166,-0.933,0.361,-1.101,-0.327,-0.572,1.014,1.283,idle
2026-01-29T16:18:09.003727,0.166,-0.933,0.361,-1.101,-0.327,-0.572,1.014,1.283,idle
2026-01-29T16:18:09.029992,0.166,-0.933,0.361,-1.101,-0.327,-0.572,1.014,1.283,idle
2026-01-29T16:18:09.040394,0.166,-0.933,0.361,-1.101,-0.327,-0.572,1.014,1.283,idle
2026-01-29T16:18:09.082701,0.166,-0.933,0.361,-1.101,-0.327,-0.572,1.014,1.283,idle
2026-01-29T16:18:09.106672,0.166,-0.933,0.361,-1.101,-0.327,-0.572,1.014,1.283,idle
2026-01-29T16:18:09.135649,0.166,-0.933,0.361,-1.101,-0.327,-0.572,1.014,1.283,idle
2026-01-29T16:18:09.166672,0.166,-0.933,0.361,-1.101,-0.327,-0.572,1.014,1.283,idle
2026-01-29T16:18:09.198779,0.166,-0.933,0.361,-1.101,-0.327,-0.572,1.014,1.283,idle
2026-01-29T16:18:09.223429,0.17,-0.927,0.36,-0.051,-0.957,-0.292,1.008,1.002,idle
2026-01-29T16:18:09.248216,0.17,-0.927,0.36,-0.051,-0.957,-0.292,1.008,1.002,idle
2026-01-29T16:18:09.281088,0.17,-0.927,0.36,-0.051,-0.957,-0.292,1.008,1.002,idle
2026-01-29T16:18:09.313309,0.17,-0.927,0.36,-0.051,-0.957,-0.292,1.008,1.002,idle
2026-01-29T16:18:09.345790,0.17,-0.927,0.36,-0.051,-0.957,-0.292,1.008,1.002,idle
2026-01-29T16:18:09.377048,0.17,-0.927,0.36,-0.051,-0.957,-0.292,1.008,1.002,idle
2026-01-29T16:18:09.418749,0.17,-0.927,0.36,-0.051,-0.957,-0.292,1.008,1.002,idle
2026-01-29T16:18:09.435170,0.17,-0.927,0.36,-0.051,-0.957,-0.292,1.008,1.002,idle
2026-01-29T16:18:09.461057,0.17,-0.927,0.36,-0.051,-0.957,-0.292,1.008,1.002,idle
2026-01-29T16:18:09.508383,0.17,-0.927,0.36,-0.051,-0.957,-0.292,1.008,1.002,idle
2026-01-29T16:18:09.544253,0.171,-0.932,0.355,0.439,-0.117,-0.012,1.012,0.454,idle
2026-01-29T16:18:09.575441,0.171,-0.932,0.355,0.439,-0.117,-0.012,1.012,0.454,idle
2026-01-29T16:18:09.617894,0.171,-0.932,0.355,0.439,-0.117,-0.012,1.012,0.454,idle
2026-01-29T16:18:09.639765,0.171,-0.932,0.355,0.439,-0.117,-0.012,1.012,0.454,idle
2026-01-29T16:18:09.680512,0.171,-0.932,0.355,0.439,-0.117,-0.012,1.012,0.454,idle
2026-01-29T16:18:09.706761,0.171,-0.932,0.355,0.439,-0.117,-0.012,1.012,0.454,idle
2026-01-29T16:18:09.731703,0.171,-0.932,0.355,0.439,-0.117,-0.012,1.012,0.454,idle
2026-01-29T16:18:09.761022,0.171,-0.932,0.355,0.439,-0.117,-0.012,1.012,0.454,idle
2026-01-29T16:18:09.794931,0.167,-0.93,0.355,-0.191,-0.327,0.758,1.01,0.848,idle
2026-01-29T16:18:09.827972,0.167,-0.93,0.355,-0.191,-0.327,0.758,1.01,0.848,idle
2026-01-29T16:18:09.866911,0.167,-0.93,0.355,-0.191,-0.327,0.758,1.01,0.848,idle
2026-01-29T16:18:09.900271,0.167,-0.93,0.355,-0.191,-0.327,0.758,1.01,0.848,idle
2026-01-29T16:18:09.917936,0.167,-0.93,0.355,-0.191,-0.327,0.758,1.01,0.848,idle
2026-01-29T16:18:09.944039,0.167,-0.93,0.355,-0.191,-0.327,0.758,1.01,0.848,idle
2026-01-29T16:18:09.975560,0.167,-0.93,0.355,-0.191,-0.327,0.758,1.01,0.848,idle
2026-01-29T16:18:10.017341,0.167,-0.93,0.355,-0.191,-0.327,0.758,1.01,0.848,idle
2026-01-29T16:18:10.034624,0.164,-0.931,0.354,0.229,-0.747,0.128,1.01,0.792,idle
2026-01-29T16:18:10.059800,0.164,-0.931,0.354,0.229,-0.747,0.128,1.01,0.792,idle
2026-01-29T16:18:10.100656,0.164,-0.931,0.354,0.229,-0.747,0.128,1.01,0.792,idle
2026-01-29T16:18:10.131726,0.164,-0.931,0.354,0.229,-0.747,0.128,1.01,0.792,idle
2026-01-29T16:18:10.164706,0.164,-0.931,0.354,0.229,-0.747,0.128,1.01,0.792,idle
2026-01-29T16:18:10.184494,0.164,-0.931,0.354,0.229,-0.747,0.128,1.01,0.792,idle
2026-01-29T16:18:10.214815,0.164,-0.931,0.354,0.229,-0.747,0.128,1.01,0.792,idle
2026-01-29T16:18:10.246080,0.164,-0.931,0.354,0.229,-0.747,0.128,1.01,0.792,idle
2026-01-29T16:18:10.275521,0.164,-0.931,0.354,0.229,-0.747,0.128,1.01,0.792,idle
2026-01-29T16:18:10.299699,0.164,-0.931,0.354,0.229,-0.747,0.128,1.01,0.792,idle
2026-01-29T16:18:10.304358,0.166,-0.931,0.355,0.579,-0.187,-0.222,1.01,0.648,idle
2026-01-29T16:18:10.331990,0.166,-0.931,0.355,0.579,-0.187,-0.222,1.01,0.648,idle
2026-01-29T16:18:10.366855,0.166,-0.931,0.355,0.579,-0.187,-0.222,1.01,0.648,idle
2026-01-29T16:18:10.396232,0.166,-0.931,0.355,0.579,-0.187,-0.222,1.01,0.648,idle
2026-01-29T16:18:10.428021,0.166,-0.931,0.355,0.579,-0.187,-0.222,1.01,0.648,idle
2026-01-29T16:18:10.449498,0.166,-0.931,0.355,0.579,-0.187,-0.222,1.01,0.648,idle
2026-01-29T16:18:10.481274,0.166,-0.931,0.355,0.579,-0.187,-0.222,1.01,0.648,idle
2026-01-29T16:18:10.516617,0.166,-0.931,0.355,0.579,-0.187,-0.222,1.01,0.648,idle
2026-01-29T16:18:10.544828,0.166,-0.931,0.355,0.579,-0.187,-0.222,1.01,0.648,idle
2026-01-29T16:18:10.575956,0.171,-0.929,0.36,0.439,-0.467,-0.152,1.011,0.659,idle
2026-01-29T16:18:10.607433,0.171,-0.929,0.36,0.439,-0.467,-0.152,1.011,0.659,idle
2026-01-29T16:18:10.649546,0.171,-0.929,0.36,0.439,-0.467,-0.152,1.011,0.659,idle
2026-01-29T16:18:10.677143,0.171,-0.929,0.36,0.439,-0.467,-0.152,1.011,0.659,idle
2026-01-29T16:18:10.708976,0.171,-0.929,0.36,0.439,-0.467,-0.152,1.011,0.659,idle
2026-01-29T16:18:10.750177,0.171,-0.929,0.36,0.439,-0.467,-0.152,1.011,0.659,idle
2026-01-29T16:18:10.777682,0.171,-0.929,0.36,0.439,-0.467,-0.152,1.011,0.659,idle
2026-01-29T16:18:10.809014,0.171,-0.929,0.36,0.439,-0.467,-0.152,1.011,0.659,idle
2026-01-29T16:18:10.840122,0.171,-0.933,0.361,0.579,-0.187,-0.502,1.015,0.789,idle
2026-01-29T16:18:10.866961,0.171,-0.933,0.361,0.579,-0.187,-0.502,1.015,0.789,idle
2026-01-29T16:18:10.892679,0.171,-0.933,0.361,0.579,-0.187,-0.502,1.015,0.789,idle
2026-01-29T16:18:10.916652,0.171,-0.933,0.361,0.579,-0.187,-0.502,1.015,0.789,idle
2026-01-29T16:18:10.945790,0.171,-0.933,0.361,0.579,-0.187,-0.502,1.015,0.789,idle
2026-01-29T16:18:10.977457,0.171,-0.933,0.361,0.579,-0.187,-0.502,1.015,0.789,idle
